"pid","task","resp","start","version","parA","rt","time_elapsed","sid","block","jitterX","jitterY","sub","trial","y"
"55a2fa33fdf99b073cd94947","br",-11,14,1,217,8000,153501,"64e50b81e019272f8535c9c0",1,-8,24,1,1,0.0506912442396313
"55a2fa33fdf99b073cd94947","br",25,25,1,234,248,153753,"64e50b81e019272f8535c9c0",1,-30,8,1,2,-0.106837606837607
"55a2fa33fdf99b073cd94947","br",-16,20,1,250,6444,160201,"64e50b81e019272f8535c9c0",1,-9,21,1,3,0.064
"55a2fa33fdf99b073cd94947","br",-11,-13,1,251,5289,165497,"64e50b81e019272f8535c9c0",1,-20,-18,1,4,0.0438247011952191
"55a2fa33fdf99b073cd94947","br",-9,-4,1,207,6132,171634,"64e50b81e019272f8535c9c0",1,25,21,1,5,0.0434782608695652
"55a2fa33fdf99b073cd94947","br",-10,-11,1,276,6019,177658,"64e50b81e019272f8535c9c0",1,-29,-11,1,6,0.036231884057971
"55a2fa33fdf99b073cd94947","br",-13,-13,1,245,4793,182457,"64e50b81e019272f8535c9c0",1,-3,-25,1,7,0.0530612244897959
"55a2fa33fdf99b073cd94947","br",-12,-4,1,245,8000,190462,"64e50b81e019272f8535c9c0",1,27,-29,1,8,0.0489795918367347
"55a2fa33fdf99b073cd94947","br",-10,-25,1,252,7214,197682,"64e50b81e019272f8535c9c0",1,4,-7,1,9,0.0396825396825397
"55a2fa33fdf99b073cd94947","br",-11,16,1,284,6739,204426,"64e50b81e019272f8535c9c0",1,-19,30,1,10,0.0387323943661972
"55a2fa33fdf99b073cd94947","br",-8,-15,1,220,5233,209666,"64e50b81e019272f8535c9c0",1,-5,10,1,11,0.0363636363636364
"55a2fa33fdf99b073cd94947","br",-8,-16,1,210,5612,215282,"64e50b81e019272f8535c9c0",1,-21,-22,1,12,0.0380952380952381
"55a2fa33fdf99b073cd94947","br",-12,10,1,232,8000,223285,"64e50b81e019272f8535c9c0",1,18,5,1,13,0.0517241379310345
"55a2fa33fdf99b073cd94947","br",-22,-22,1,229,0,223290,"64e50b81e019272f8535c9c0",1,13,2,1,14,0.0960698689956332
"55a2fa33fdf99b073cd94947","br",-11,-19,1,222,5500,228793,"64e50b81e019272f8535c9c0",1,-2,6,1,15,0.0495495495495495
"55a2fa33fdf99b073cd94947","pog",174,182,1,137,4316,271017,"64e50b81e019272f8535c9c0",1,0,0,1,1,37
"55a2fa33fdf99b073cd94947","pog",187,153,1,155,6796,277817,"64e50b81e019272f8535c9c0",1,0,0,1,2,32
"55a2fa33fdf99b073cd94947","pog",207,143,1,177,7122,284946,"64e50b81e019272f8535c9c0",1,0,0,1,3,30
"55a2fa33fdf99b073cd94947","pog",196,120,1,161,8000,292948,"64e50b81e019272f8535c9c0",1,0,0,1,4,35
"55a2fa33fdf99b073cd94947","pog",146,146,1,140,265,293217,"64e50b81e019272f8535c9c0",1,0,0,1,5,6
"55a2fa33fdf99b073cd94947","pog",224,140,1,191,6421,299641,"64e50b81e019272f8535c9c0",1,0,0,1,6,33
"55a2fa33fdf99b073cd94947","pog",207,181,1,179,4282,303929,"64e50b81e019272f8535c9c0",1,0,0,1,7,28
"55a2fa33fdf99b073cd94947","pog",171,153,1,142,7636,311569,"64e50b81e019272f8535c9c0",1,0,0,1,8,29
"55a2fa33fdf99b073cd94947","pog",207,187,1,174,4116,315689,"64e50b81e019272f8535c9c0",1,0,0,1,9,33
"55a2fa33fdf99b073cd94947","pog",207,137,1,176,5453,321146,"64e50b81e019272f8535c9c0",1,0,0,1,10,31
"55a2fa33fdf99b073cd94947","pog",182,116,1,156,6139,327289,"64e50b81e019272f8535c9c0",1,0,0,1,11,26
"55a2fa33fdf99b073cd94947","pog",158,124,1,130,5564,332857,"64e50b81e019272f8535c9c0",1,0,0,1,12,28
"55a2fa33fdf99b073cd94947","pog",201,125,1,174,6394,339258,"64e50b81e019272f8535c9c0",1,0,0,1,13,27
"55a2fa33fdf99b073cd94947","pog",224,152,1,194,6034,345297,"64e50b81e019272f8535c9c0",1,0,0,1,14,30
"55a2fa33fdf99b073cd94947","pog",212,184,1,189,4437,349738,"64e50b81e019272f8535c9c0",1,0,0,1,15,23
"55a2fa33fdf99b073cd94947","eb",22,27,1,25,4790,402642,"64e50b81e019272f8535c9c0",1,0,0,1,1,0.12
"55a2fa33fdf99b073cd94947","eb",26,31,1,30,6374,409025,"64e50b81e019272f8535c9c0",1,0,0,1,2,0.133333333333333
"55a2fa33fdf99b073cd94947","eb",24,44,1,25,7376,416410,"64e50b81e019272f8535c9c0",1,0,0,1,3,0.04
"55a2fa33fdf99b073cd94947","eb",27,48,1,30,6149,422569,"64e50b81e019272f8535c9c0",1,0,0,1,4,0.1
"55a2fa33fdf99b073cd94947","eb",29,27,1,34,7764,430338,"64e50b81e019272f8535c9c0",1,0,0,1,5,0.147058823529412
"55a2fa33fdf99b073cd94947","eb",49,45,1,51,7102,437450,"64e50b81e019272f8535c9c0",1,0,0,1,6,0.0392156862745098
"55a2fa33fdf99b073cd94947","eb",46,35,1,52,6018,443474,"64e50b81e019272f8535c9c0",1,0,0,1,7,0.115384615384615
"55a2fa33fdf99b073cd94947","eb",31,36,1,34,4120,447602,"64e50b81e019272f8535c9c0",1,0,0,1,8,0.0882352941176471
"55a2fa33fdf99b073cd94947","eb",23,32,1,25,6756,454362,"64e50b81e019272f8535c9c0",1,0,0,1,9,0.08
"55a2fa33fdf99b073cd94947","eb",32,25,1,34,8000,462366,"64e50b81e019272f8535c9c0",1,0,0,1,10,0.0588235294117647
"55a2fa33fdf99b073cd94947","eb",36,36,1,52,30,462402,"64e50b81e019272f8535c9c0",1,0,0,1,11,0.307692307692308
"55a2fa33fdf99b073cd94947","eb",44,36,1,47,7899,470305,"64e50b81e019272f8535c9c0",1,0,0,1,12,0.0638297872340425
"55a2fa33fdf99b073cd94947","eb",42,41,1,46,5539,475849,"64e50b81e019272f8535c9c0",1,0,0,1,13,0.0869565217391304
"55a2fa33fdf99b073cd94947","eb",22,31,1,24,5180,481033,"64e50b81e019272f8535c9c0",1,0,0,1,14,0.0833333333333333
"55a2fa33fdf99b073cd94947","eb",52,44,1,54,5847,486889,"64e50b81e019272f8535c9c0",1,0,0,1,15,0.037037037037037
"55a2fa33fdf99b073cd94947","zol",-2.4,-0.6,2,NA,6444,515884,"64e50b81e019272f8535c9c0",1,-15,29,1,1,2.4
"55a2fa33fdf99b073cd94947","zol",-3.38,-0.32,2,NA,8000,523890,"64e50b81e019272f8535c9c0",1,18,15,1,2,3.38
"55a2fa33fdf99b073cd94947","zol",-2.53,-0.07,2,NA,6105,530010,"64e50b81e019272f8535c9c0",1,20,2,1,3,2.53
"55a2fa33fdf99b073cd94947","zol",-1.9,-0.2,2,NA,4734,534754,"64e50b81e019272f8535c9c0",1,-17,-19,1,4,1.9
"55a2fa33fdf99b073cd94947","zol",-2.2,0.5,2,NA,4578,539338,"64e50b81e019272f8535c9c0",1,8,-17,1,5,2.2
"55a2fa33fdf99b073cd94947","zol",-2.44,0.04,2,NA,4999,544346,"64e50b81e019272f8535c9c0",1,-22,14,1,6,2.44
"55a2fa33fdf99b073cd94947","zol",-2.18,-0.72,2,NA,4490,548843,"64e50b81e019272f8535c9c0",1,2,12,1,7,2.18
"55a2fa33fdf99b073cd94947","zol",-2.53,-0.17,2,NA,6069,554922,"64e50b81e019272f8535c9c0",1,5,-1,1,8,2.53
"55a2fa33fdf99b073cd94947","zol",-2.51,-0.19,2,NA,6414,561346,"64e50b81e019272f8535c9c0",1,-5,-16,1,9,2.51
"55a2fa33fdf99b073cd94947","zol",-2.37,-0.43,2,NA,6471,567826,"64e50b81e019272f8535c9c0",1,16,-20,1,10,2.37
"55a2fa33fdf99b073cd94947","zol",-1.84,0.14,2,NA,4184,572018,"64e50b81e019272f8535c9c0",1,-9,-26,1,11,1.84
"55a2fa33fdf99b073cd94947","zol",-1.63,0.73,2,NA,5922,577947,"64e50b81e019272f8535c9c0",1,12,-8,1,12,1.63
"55a2fa33fdf99b073cd94947","zol",-1.8,-0.3,2,NA,5304,583258,"64e50b81e019272f8535c9c0",1,-13,2,1,13,1.8
"55a2fa33fdf99b073cd94947","zol",-2.21,0.51,2,NA,6005,589273,"64e50b81e019272f8535c9c0",1,-3,3,1,14,2.21
"55a2fa33fdf99b073cd94947","zol",-1.82,-0.68,2,NA,5766,595049,"64e50b81e019272f8535c9c0",1,25,-7,1,15,1.82
"55a2fa33fdf99b073cd94947","pz",35,44,2,42,6379,647153,"64e50b81e019272f8535c9c0",1,NA,NA,1,1,0.166666666666667
"55a2fa33fdf99b073cd94947","pz",20,24,2,25,7076,654233,"64e50b81e019272f8535c9c0",1,NA,NA,1,2,0.2
"55a2fa33fdf99b073cd94947","pz",20,34,2,24,4900,659138,"64e50b81e019272f8535c9c0",1,NA,NA,1,3,0.166666666666667
"55a2fa33fdf99b073cd94947","pz",22,36,2,25,3956,663098,"64e50b81e019272f8535c9c0",1,NA,NA,1,4,0.12
"55a2fa33fdf99b073cd94947","pz",24,54,2,29,5427,668531,"64e50b81e019272f8535c9c0",1,NA,NA,1,5,0.172413793103448
"55a2fa33fdf99b073cd94947","pz",22,23,2,30,2595,671130,"64e50b81e019272f8535c9c0",1,NA,NA,1,6,0.266666666666667
"55a2fa33fdf99b073cd94947","pz",33,46,2,41,5556,676690,"64e50b81e019272f8535c9c0",1,NA,NA,1,7,0.195121951219512
"55a2fa33fdf99b073cd94947","pz",33,31,2,46,5721,682417,"64e50b81e019272f8535c9c0",1,NA,NA,1,8,0.282608695652174
"55a2fa33fdf99b073cd94947","pz",21,59,2,30,8000,690423,"64e50b81e019272f8535c9c0",1,NA,NA,1,9,0.3
"55a2fa33fdf99b073cd94947","pz",32,32,2,36,178,690610,"64e50b81e019272f8535c9c0",1,NA,NA,1,10,0.111111111111111
"55a2fa33fdf99b073cd94947","pz",39,34,2,56,5001,695618,"64e50b81e019272f8535c9c0",1,NA,NA,1,11,0.303571428571429
"55a2fa33fdf99b073cd94947","pz",14,26,2,20,4249,699873,"64e50b81e019272f8535c9c0",1,NA,NA,1,12,0.3
"55a2fa33fdf99b073cd94947","pz",33,21,2,41,5144,705026,"64e50b81e019272f8535c9c0",1,NA,NA,1,13,0.195121951219512
"55a2fa33fdf99b073cd94947","pz",21,47,2,22,6089,711121,"64e50b81e019272f8535c9c0",1,NA,NA,1,14,0.0454545454545455
"55a2fa33fdf99b073cd94947","pz",37,45,2,52,5268,716393,"64e50b81e019272f8535c9c0",1,NA,NA,1,15,0.288461538461538
"55a2fa33fdf99b073cd94947","eb",32,43,2,27,6016,754233,"64e50b81e019272f8535c9c0",2,0,0,1,1,0.185185185185185
"55a2fa33fdf99b073cd94947","eb",43,34,2,36,5667,759905,"64e50b81e019272f8535c9c0",2,0,0,1,2,0.194444444444444
"55a2fa33fdf99b073cd94947","eb",53,38,2,48,6688,766601,"64e50b81e019272f8535c9c0",2,0,0,1,3,0.104166666666667
"55a2fa33fdf99b073cd94947","eb",47,54,2,36,3292,769898,"64e50b81e019272f8535c9c0",2,0,0,1,4,0.305555555555556
"55a2fa33fdf99b073cd94947","eb",59,30,2,49,6785,776689,"64e50b81e019272f8535c9c0",2,0,0,1,5,0.204081632653061
"55a2fa33fdf99b073cd94947","eb",45,43,2,35,4465,781162,"64e50b81e019272f8535c9c0",2,0,0,1,6,0.285714285714286
"55a2fa33fdf99b073cd94947","eb",31,29,2,24,2729,783898,"64e50b81e019272f8535c9c0",2,0,0,1,7,0.291666666666667
"55a2fa33fdf99b073cd94947","eb",49,31,2,42,6738,790641,"64e50b81e019272f8535c9c0",2,0,0,1,8,0.166666666666667
"55a2fa33fdf99b073cd94947","eb",48,35,2,41,5904,796554,"64e50b81e019272f8535c9c0",2,0,0,1,9,0.170731707317073
"55a2fa33fdf99b073cd94947","eb",29,53,2,25,6125,802689,"64e50b81e019272f8535c9c0",2,0,0,1,10,0.16
"55a2fa33fdf99b073cd94947","eb",29,43,2,25,5303,808002,"64e50b81e019272f8535c9c0",2,0,0,1,11,0.16
"55a2fa33fdf99b073cd94947","eb",61,40,2,54,6667,814673,"64e50b81e019272f8535c9c0",2,0,0,1,12,0.12962962962963
"55a2fa33fdf99b073cd94947","eb",57,39,2,53,6128,820809,"64e50b81e019272f8535c9c0",2,0,0,1,13,0.0754716981132075
"55a2fa33fdf99b073cd94947","eb",36,43,2,32,5176,825994,"64e50b81e019272f8535c9c0",2,0,0,1,14,0.125
"55a2fa33fdf99b073cd94947","eb",49,48,2,45,3944,829946,"64e50b81e019272f8535c9c0",2,0,0,1,15,0.0888888888888889
"55a2fa33fdf99b073cd94947","zol",0.83,0.67,1,NA,6492,860002,"64e50b81e019272f8535c9c0",2,21,-10,1,1,0.83
"55a2fa33fdf99b073cd94947","zol",1.41,0.69,1,NA,7218,867234,"64e50b81e019272f8535c9c0",2,-3,-30,1,2,1.41
"55a2fa33fdf99b073cd94947","zol",0.72,0.68,1,NA,7233,874474,"64e50b81e019272f8535c9c0",2,-8,-10,1,3,0.72
"55a2fa33fdf99b073cd94947","zol",1.14,-0.64,1,NA,4480,878963,"64e50b81e019272f8535c9c0",2,10,5,1,4,1.14
"55a2fa33fdf99b073cd94947","zol",1.16,0.54,1,NA,4561,883530,"64e50b81e019272f8535c9c0",2,15,30,1,5,1.16
"55a2fa33fdf99b073cd94947","zol",-0.75,0.45,1,NA,3162,886698,"64e50b81e019272f8535c9c0",2,-21,-5,1,6,-0.75
"55a2fa33fdf99b073cd94947","zol",1.85,-0.35,1,NA,8000,894707,"64e50b81e019272f8535c9c0",2,-22,0,1,7,1.85
"55a2fa33fdf99b073cd94947","zol",-0.45,0.45,1,NA,246,894962,"64e50b81e019272f8535c9c0",2,27,-12,1,8,-0.45
"55a2fa33fdf99b073cd94947","zol",1.6,0.2,1,NA,8000,902969,"64e50b81e019272f8535c9c0",2,14,12,1,9,1.6
"55a2fa33fdf99b073cd94947","zol",-0.51,0.51,1,NA,266,903241,"64e50b81e019272f8535c9c0",2,11,-23,1,10,-0.51
"55a2fa33fdf99b073cd94947","zol",-0.47,-0.33,1,NA,8000,911249,"64e50b81e019272f8535c9c0",2,-3,18,1,11,-0.47
"55a2fa33fdf99b073cd94947","zol",1,-0.2,1,NA,2777,914034,"64e50b81e019272f8535c9c0",2,-19,15,1,12,1
"55a2fa33fdf99b073cd94947","zol",0.86,0.34,1,NA,4625,918666,"64e50b81e019272f8535c9c0",2,5,5,1,13,0.86
"55a2fa33fdf99b073cd94947","zol",1.16,0.14,1,NA,3442,922114,"64e50b81e019272f8535c9c0",2,-11,16,1,14,1.16
"55a2fa33fdf99b073cd94947","zol",0.9,0.4,1,NA,2338,924458,"64e50b81e019272f8535c9c0",2,9,16,1,15,0.9
"55a2fa33fdf99b073cd94947","br",22,24,2,207,3396,937746,"64e50b81e019272f8535c9c0",2,8,22,1,1,0.106280193236715
"55a2fa33fdf99b073cd94947","br",19,-28,2,274,6573,944322,"64e50b81e019272f8535c9c0",2,-9,-14,1,2,0.0693430656934307
"55a2fa33fdf99b073cd94947","br",12,9,2,238,4195,948521,"64e50b81e019272f8535c9c0",2,-2,5,1,3,0.0504201680672269
"55a2fa33fdf99b073cd94947","br",20,20,2,283,4228,952754,"64e50b81e019272f8535c9c0",2,23,10,1,4,0.0706713780918728
"55a2fa33fdf99b073cd94947","br",14,-5,2,221,6124,958881,"64e50b81e019272f8535c9c0",2,0,14,1,5,0.0633484162895928
"55a2fa33fdf99b073cd94947","br",17,-28,2,253,5745,964634,"64e50b81e019272f8535c9c0",2,0,-14,1,6,0.0671936758893281
"55a2fa33fdf99b073cd94947","br",20,21,2,282,3395,968033,"64e50b81e019272f8535c9c0",2,-25,-12,1,7,0.0709219858156028
"55a2fa33fdf99b073cd94947","br",19,19,2,259,3476,971513,"64e50b81e019272f8535c9c0",2,28,-14,1,8,0.0733590733590734
"55a2fa33fdf99b073cd94947","br",16,24,2,213,4659,976178,"64e50b81e019272f8535c9c0",2,25,20,1,9,0.0751173708920188
"55a2fa33fdf99b073cd94947","br",16,15,2,240,4058,980241,"64e50b81e019272f8535c9c0",2,0,4,1,10,0.0666666666666667
"55a2fa33fdf99b073cd94947","br",23,25,2,239,3202,983449,"64e50b81e019272f8535c9c0",2,7,25,1,11,0.096234309623431
"55a2fa33fdf99b073cd94947","br",17,-22,2,238,6490,989946,"64e50b81e019272f8535c9c0",2,-18,26,1,12,0.0714285714285714
"55a2fa33fdf99b073cd94947","br",20,19,2,266,4644,994594,"64e50b81e019272f8535c9c0",2,-8,6,1,13,0.075187969924812
"55a2fa33fdf99b073cd94947","br",16,12,2,292,4024,998625,"64e50b81e019272f8535c9c0",2,-25,-16,1,14,0.0547945205479452
"55a2fa33fdf99b073cd94947","br",15,-12,2,292,6593,1005225,"64e50b81e019272f8535c9c0",2,24,26,1,15,0.0513698630136986
"55a2fa33fdf99b073cd94947","pz",36,49,1,22,3739,1047690,"64e50b81e019272f8535c9c0",2,NA,NA,1,1,0.636363636363636
"55a2fa33fdf99b073cd94947","pz",91,26,1,58,7711,1055410,"64e50b81e019272f8535c9c0",2,NA,NA,1,2,0.568965517241379
"55a2fa33fdf99b073cd94947","pz",88,33,1,59,7045,1062465,"64e50b81e019272f8535c9c0",2,NA,NA,1,3,0.491525423728814
"55a2fa33fdf99b073cd94947","pz",78,59,1,48,5052,1067522,"64e50b81e019272f8535c9c0",2,NA,NA,1,4,0.625
"55a2fa33fdf99b073cd94947","pz",38,37,1,24,4763,1072290,"64e50b81e019272f8535c9c0",2,NA,NA,1,5,0.583333333333333
"55a2fa33fdf99b073cd94947","pz",33,43,1,21,6908,1079202,"64e50b81e019272f8535c9c0",2,NA,NA,1,6,0.571428571428571
"55a2fa33fdf99b073cd94947","pz",56,26,1,33,5892,1085098,"64e50b81e019272f8535c9c0",2,NA,NA,1,7,0.696969696969697
"55a2fa33fdf99b073cd94947","pz",36,51,1,24,8000,1093102,"64e50b81e019272f8535c9c0",2,NA,NA,1,8,0.5
"55a2fa33fdf99b073cd94947","pz",50,50,1,32,192,1093298,"64e50b81e019272f8535c9c0",2,NA,NA,1,9,0.5625
"55a2fa33fdf99b073cd94947","pz",65,20,1,43,7644,1100947,"64e50b81e019272f8535c9c0",2,NA,NA,1,10,0.511627906976744
"55a2fa33fdf99b073cd94947","pz",53,39,1,32,5833,1106786,"64e50b81e019272f8535c9c0",2,NA,NA,1,11,0.65625
"55a2fa33fdf99b073cd94947","pz",58,40,1,35,5548,1112338,"64e50b81e019272f8535c9c0",2,NA,NA,1,12,0.657142857142857
"55a2fa33fdf99b073cd94947","pz",48,46,1,30,5932,1118274,"64e50b81e019272f8535c9c0",2,NA,NA,1,13,0.6
"55a2fa33fdf99b073cd94947","pz",36,41,1,25,6151,1124434,"64e50b81e019272f8535c9c0",2,NA,NA,1,14,0.44
"55a2fa33fdf99b073cd94947","pz",48,44,1,32,3106,1127545,"64e50b81e019272f8535c9c0",2,NA,NA,1,15,0.5
"55a2fa33fdf99b073cd94947","pog",288,364,2,311,4714,1148282,"64e50b81e019272f8535c9c0",2,0,0,1,1,23
"55a2fa33fdf99b073cd94947","pog",311,395,2,330,5637,1153922,"64e50b81e019272f8535c9c0",2,0,0,1,2,19
"55a2fa33fdf99b073cd94947","pog",308,300,2,342,3172,1157097,"64e50b81e019272f8535c9c0",2,0,0,1,3,34
"55a2fa33fdf99b073cd94947","pog",292,280,2,321,3493,1160594,"64e50b81e019272f8535c9c0",2,0,0,1,4,29
"55a2fa33fdf99b073cd94947","pog",348,322,2,373,6459,1167058,"64e50b81e019272f8535c9c0",2,0,0,1,5,25
"55a2fa33fdf99b073cd94947","pog",283,351,2,309,7537,1174601,"64e50b81e019272f8535c9c0",2,0,0,1,6,26
"55a2fa33fdf99b073cd94947","pog",298,366,2,324,8000,1182606,"64e50b81e019272f8535c9c0",2,0,0,1,7,26
"55a2fa33fdf99b073cd94947","pog",371,371,2,362,166,1182778,"64e50b81e019272f8535c9c0",2,0,0,1,8,-9
"55a2fa33fdf99b073cd94947","pog",285,353,2,313,8000,1190788,"64e50b81e019272f8535c9c0",2,0,0,1,9,28
"55a2fa33fdf99b073cd94947","pog",342,322,2,374,5530,1196322,"64e50b81e019272f8535c9c0",2,0,0,1,10,32
"55a2fa33fdf99b073cd94947","pog",330,394,2,373,5253,1201579,"64e50b81e019272f8535c9c0",2,0,0,1,11,43
"55a2fa33fdf99b073cd94947","pog",312,400,2,343,8000,1209582,"64e50b81e019272f8535c9c0",2,0,0,1,12,31
"55a2fa33fdf99b073cd94947","pog",307,289,2,329,5728,1215314,"64e50b81e019272f8535c9c0",2,0,0,1,13,22
"55a2fa33fdf99b073cd94947","pog",323,395,2,350,8000,1223320,"64e50b81e019272f8535c9c0",2,0,0,1,14,27
"55a2fa33fdf99b073cd94947","pog",337,367,2,358,8000,1231325,"64e50b81e019272f8535c9c0",2,0,0,1,15,21
"55a5f19bfdf99b28b5340d00","zol",-0.43,-0.67,2,NA,8000,2064675,"64e50290df62995c3043a679",1,26,-26,2,1,0.43
"55a5f19bfdf99b28b5340d00","zol",-0.78,0.38,2,NA,6486,2071167,"64e50290df62995c3043a679",1,21,-1,2,2,0.78
"55a5f19bfdf99b28b5340d00","zol",-0.42,0.02,2,NA,8000,2079179,"64e50290df62995c3043a679",1,-28,-24,2,3,0.42
"55a5f19bfdf99b28b5340d00","zol",-0.36,-0.14,2,NA,7695,2086896,"64e50290df62995c3043a679",1,-28,-10,2,4,0.36
"55a5f19bfdf99b28b5340d00","zol",-0.32,-0.18,2,NA,8000,2094908,"64e50290df62995c3043a679",1,29,-6,2,5,0.32
"55a5f19bfdf99b28b5340d00","zol",-0.14,-0.36,2,NA,8000,2102919,"64e50290df62995c3043a679",1,20,1,2,6,0.14
"55a5f19bfdf99b28b5340d00","zol",-0.35,-0.55,2,NA,7533,2110474,"64e50290df62995c3043a679",1,-3,4,2,7,0.35
"55a5f19bfdf99b28b5340d00","zol",-0.58,0.48,2,NA,8000,2118490,"64e50290df62995c3043a679",1,15,-25,2,8,0.58
"55a5f19bfdf99b28b5340d00","zol",-0.8,0.2,2,NA,8000,2126496,"64e50290df62995c3043a679",1,14,-6,2,9,0.8
"55a5f19bfdf99b28b5340d00","zol",-0.46,-0.04,2,NA,8000,2134507,"64e50290df62995c3043a679",1,-18,-17,2,10,0.46
"55a5f19bfdf99b28b5340d00","zol",-0.67,-0.23,2,NA,8000,2142520,"64e50290df62995c3043a679",1,-11,17,2,11,0.67
"55a5f19bfdf99b28b5340d00","zol",-0.45,-0.55,2,NA,6837,2149363,"64e50290df62995c3043a679",1,-23,25,2,12,0.45
"55a5f19bfdf99b28b5340d00","zol",-0.45,0.75,2,NA,8000,2157375,"64e50290df62995c3043a679",1,4,-4,2,13,0.45
"55a5f19bfdf99b28b5340d00","zol",-0.24,0.04,2,NA,6289,2163687,"64e50290df62995c3043a679",1,-7,-24,2,14,0.24
"55a5f19bfdf99b28b5340d00","zol",-0.36,-0.14,2,NA,6968,2170673,"64e50290df62995c3043a679",1,-4,-18,2,15,0.36
"55a5f19bfdf99b28b5340d00","pz",26,27,2,26,6746,2255901,"64e50290df62995c3043a679",1,NA,NA,2,1,0
"55a5f19bfdf99b28b5340d00","pz",41,50,2,44,4320,2260228,"64e50290df62995c3043a679",1,NA,NA,2,2,0.0681818181818182
"55a5f19bfdf99b28b5340d00","pz",43,55,2,46,5710,2265951,"64e50290df62995c3043a679",1,NA,NA,2,3,0.0652173913043478
"55a5f19bfdf99b28b5340d00","pz",29,60,2,28,8000,2273957,"64e50290df62995c3043a679",1,NA,NA,2,4,-0.0357142857142857
"55a5f19bfdf99b28b5340d00","pz",49,51,2,50,8000,2281965,"64e50290df62995c3043a679",1,NA,NA,2,5,0.02
"55a5f19bfdf99b28b5340d00","pz",42,40,2,42,6859,2288830,"64e50290df62995c3043a679",1,NA,NA,2,6,0
"55a5f19bfdf99b28b5340d00","pz",52,42,2,53,5838,2294675,"64e50290df62995c3043a679",1,NA,NA,2,7,0.0188679245283019
"55a5f19bfdf99b28b5340d00","pz",39,54,2,39,5542,2300223,"64e50290df62995c3043a679",1,NA,NA,2,8,0
"55a5f19bfdf99b28b5340d00","pz",34,54,2,33,5726,2305957,"64e50290df62995c3043a679",1,NA,NA,2,9,-0.0303030303030303
"55a5f19bfdf99b28b5340d00","pz",61,30,2,59,7339,2313303,"64e50290df62995c3043a679",1,NA,NA,2,10,-0.0338983050847458
"55a5f19bfdf99b28b5340d00","pz",31,41,2,31,2918,2316228,"64e50290df62995c3043a679",1,NA,NA,2,11,0
"55a5f19bfdf99b28b5340d00","pz",34,48,2,32,3366,2319604,"64e50290df62995c3043a679",1,NA,NA,2,12,-0.0625
"55a5f19bfdf99b28b5340d00","pz",60,52,2,58,6049,2325661,"64e50290df62995c3043a679",1,NA,NA,2,13,-0.0344827586206897
"55a5f19bfdf99b28b5340d00","pz",49,28,2,52,5726,2331398,"64e50290df62995c3043a679",1,NA,NA,2,14,0.0576923076923077
"55a5f19bfdf99b28b5340d00","pz",42,22,2,42,4168,2335571,"64e50290df62995c3043a679",1,NA,NA,2,15,0
"55a5f19bfdf99b28b5340d00","eb",38,27,1,37,3520,2376450,"64e50290df62995c3043a679",1,0,0,2,1,-0.027027027027027
"55a5f19bfdf99b28b5340d00","eb",36,32,1,36,3588,2380043,"64e50290df62995c3043a679",1,0,0,2,2,0
"55a5f19bfdf99b28b5340d00","eb",29,40,1,28,6449,2386505,"64e50290df62995c3043a679",1,0,0,2,3,-0.0357142857142857
"55a5f19bfdf99b28b5340d00","eb",34,25,1,33,3797,2390306,"64e50290df62995c3043a679",1,0,0,2,4,-0.0303030303030303
"55a5f19bfdf99b28b5340d00","eb",37,40,1,39,5948,2396266,"64e50290df62995c3043a679",1,0,0,2,5,0.0512820512820513
"55a5f19bfdf99b28b5340d00","eb",25,26,1,26,3187,2399460,"64e50290df62995c3043a679",1,0,0,2,6,0.0384615384615385
"55a5f19bfdf99b28b5340d00","eb",33,54,1,35,5376,2404843,"64e50290df62995c3043a679",1,0,0,2,7,0.0571428571428571
"55a5f19bfdf99b28b5340d00","eb",33,33,1,34,913,2405761,"64e50290df62995c3043a679",1,0,0,2,8,0.0294117647058824
"55a5f19bfdf99b28b5340d00","eb",40,26,1,40,4577,2410342,"64e50290df62995c3043a679",1,0,0,2,9,0
"55a5f19bfdf99b28b5340d00","eb",25,28,1,25,4245,2414590,"64e50290df62995c3043a679",1,0,0,2,10,0
"55a5f19bfdf99b28b5340d00","eb",42,26,1,42,4405,2419004,"64e50290df62995c3043a679",1,0,0,2,11,0
"55a5f19bfdf99b28b5340d00","eb",47,51,1,50,3478,2422489,"64e50290df62995c3043a679",1,0,0,2,12,0.06
"55a5f19bfdf99b28b5340d00","eb",38,45,1,41,4973,2427471,"64e50290df62995c3043a679",1,0,0,2,13,0.0731707317073171
"55a5f19bfdf99b28b5340d00","eb",40,29,1,40,2756,2430238,"64e50290df62995c3043a679",1,0,0,2,14,0
"55a5f19bfdf99b28b5340d00","eb",44,29,1,43,3601,2433846,"64e50290df62995c3043a679",1,0,0,2,15,-0.0232558139534884
"55a5f19bfdf99b28b5340d00","pog",184,214,1,165,4179,2467497,"64e50290df62995c3043a679",1,0,0,2,1,19
"55a5f19bfdf99b28b5340d00","pog",145,185,1,120,8000,2475502,"64e50290df62995c3043a679",1,0,0,2,2,25
"55a5f19bfdf99b28b5340d00","pog",148,124,1,133,4863,2480376,"64e50290df62995c3043a679",1,0,0,2,3,15
"55a5f19bfdf99b28b5340d00","pog",157,151,1,142,4485,2484867,"64e50290df62995c3043a679",1,0,0,2,4,15
"55a5f19bfdf99b28b5340d00","pog",195,175,1,184,5016,2489895,"64e50290df62995c3043a679",1,0,0,2,5,11
"55a5f19bfdf99b28b5340d00","pog",184,128,1,166,4335,2494237,"64e50290df62995c3043a679",1,0,0,2,6,18
"55a5f19bfdf99b28b5340d00","pog",211,117,1,197,6231,2500473,"64e50290df62995c3043a679",1,0,0,2,7,14
"55a5f19bfdf99b28b5340d00","pog",214,188,1,196,2322,2502801,"64e50290df62995c3043a679",1,0,0,2,8,18
"55a5f19bfdf99b28b5340d00","pog",188,150,1,174,3020,2505826,"64e50290df62995c3043a679",1,0,0,2,9,14
"55a5f19bfdf99b28b5340d00","pog",145,219,1,124,5984,2511822,"64e50290df62995c3043a679",1,0,0,2,10,21
"55a5f19bfdf99b28b5340d00","pog",210,136,1,190,3056,2514883,"64e50290df62995c3043a679",1,0,0,2,11,20
"55a5f19bfdf99b28b5340d00","pog",161,195,1,139,3954,2518843,"64e50290df62995c3043a679",1,0,0,2,12,22
"55a5f19bfdf99b28b5340d00","pog",165,105,1,147,2537,2521391,"64e50290df62995c3043a679",1,0,0,2,13,18
"55a5f19bfdf99b28b5340d00","pog",178,150,1,159,3831,2525230,"64e50290df62995c3043a679",1,0,0,2,14,19
"55a5f19bfdf99b28b5340d00","pog",181,145,1,165,2518,2527753,"64e50290df62995c3043a679",1,0,0,2,15,16
"55a5f19bfdf99b28b5340d00","br",-10,-13,1,239,5885,2547067,"64e50290df62995c3043a679",1,29,4,2,1,0.0418410041841004
"55a5f19bfdf99b28b5340d00","br",-10,-7,1,203,2760,2549839,"64e50290df62995c3043a679",1,-16,-25,2,2,0.0492610837438424
"55a5f19bfdf99b28b5340d00","br",-8,-9,1,201,3676,2553522,"64e50290df62995c3043a679",1,0,-16,2,3,0.0398009950248756
"55a5f19bfdf99b28b5340d00","br",-7,11,1,249,4110,2557639,"64e50290df62995c3043a679",1,24,19,2,4,0.0281124497991968
"55a5f19bfdf99b28b5340d00","br",-6,29,1,220,3258,2560904,"64e50290df62995c3043a679",1,7,-7,2,5,0.0272727272727273
"55a5f19bfdf99b28b5340d00","br",-8,8,1,227,2206,2563117,"64e50290df62995c3043a679",1,-24,-16,2,6,0.0352422907488987
"55a5f19bfdf99b28b5340d00","br",-6,-2,1,209,3482,2566609,"64e50290df62995c3043a679",1,9,24,2,7,0.0287081339712919
"55a5f19bfdf99b28b5340d00","br",-11,8,1,228,3355,2569977,"64e50290df62995c3043a679",1,20,-6,2,8,0.0482456140350877
"55a5f19bfdf99b28b5340d00","br",-10,29,1,239,4747,2574737,"64e50290df62995c3043a679",1,-13,-29,2,9,0.0418410041841004
"55a5f19bfdf99b28b5340d00","br",-8,-6,1,249,2299,2577043,"64e50290df62995c3043a679",1,-12,-11,2,10,0.0321285140562249
"55a5f19bfdf99b28b5340d00","br",-6,-12,1,283,4219,2581273,"64e50290df62995c3043a679",1,-21,19,2,11,0.0212014134275618
"55a5f19bfdf99b28b5340d00","br",-6,8,1,273,2526,2583811,"64e50290df62995c3043a679",1,-16,-29,2,12,0.021978021978022
"55a5f19bfdf99b28b5340d00","br",-6,12,1,284,1827,2585648,"64e50290df62995c3043a679",1,-4,21,2,13,0.0211267605633803
"55a5f19bfdf99b28b5340d00","br",-13,1,1,285,2206,2587860,"64e50290df62995c3043a679",1,-13,14,2,14,0.0456140350877193
"55a5f19bfdf99b28b5340d00","br",-7,24,1,237,3451,2591321,"64e50290df62995c3043a679",1,16,-7,2,15,0.029535864978903
"55a5f19bfdf99b28b5340d00","pz",51,46,1,45,2710,2626229,"64e50290df62995c3043a679",2,NA,NA,2,1,0.133333333333333
"55a5f19bfdf99b28b5340d00","pz",27,60,1,22,5402,2631642,"64e50290df62995c3043a679",2,NA,NA,2,2,0.227272727272727
"55a5f19bfdf99b28b5340d00","pz",59,59,1,49,4651,2636305,"64e50290df62995c3043a679",2,NA,NA,2,3,0.204081632653061
"55a5f19bfdf99b28b5340d00","pz",42,23,1,39,4855,2641167,"64e50290df62995c3043a679",2,NA,NA,2,4,0.0769230769230769
"55a5f19bfdf99b28b5340d00","pz",50,58,1,44,5063,2646236,"64e50290df62995c3043a679",2,NA,NA,2,5,0.136363636363636
"55a5f19bfdf99b28b5340d00","pz",61,44,1,57,3514,2649763,"64e50290df62995c3043a679",2,NA,NA,2,6,0.0701754385964912
"55a5f19bfdf99b28b5340d00","pz",59,41,1,50,3156,2652926,"64e50290df62995c3043a679",2,NA,NA,2,7,0.18
"55a5f19bfdf99b28b5340d00","pz",53,26,1,49,4347,2657283,"64e50290df62995c3043a679",2,NA,NA,2,8,0.0816326530612245
"55a5f19bfdf99b28b5340d00","pz",26,42,1,25,7772,2665067,"64e50290df62995c3043a679",2,NA,NA,2,9,0.04
"55a5f19bfdf99b28b5340d00","pz",34,57,1,30,5536,2670615,"64e50290df62995c3043a679",2,NA,NA,2,10,0.133333333333333
"55a5f19bfdf99b28b5340d00","pz",25,23,1,22,5594,2676223,"64e50290df62995c3043a679",2,NA,NA,2,11,0.136363636363636
"55a5f19bfdf99b28b5340d00","pz",59,47,1,51,3174,2679403,"64e50290df62995c3043a679",2,NA,NA,2,12,0.156862745098039
"55a5f19bfdf99b28b5340d00","pz",22,25,1,20,3492,2682906,"64e50290df62995c3043a679",2,NA,NA,2,13,0.1
"55a5f19bfdf99b28b5340d00","pz",26,20,1,25,4037,2686950,"64e50290df62995c3043a679",2,NA,NA,2,14,0.04
"55a5f19bfdf99b28b5340d00","pz",53,39,1,47,3981,2690941,"64e50290df62995c3043a679",2,NA,NA,2,15,0.127659574468085
"55a5f19bfdf99b28b5340d00","eb",39,25,2,34,3310,2721409,"64e50290df62995c3043a679",2,0,0,2,1,0.147058823529412
"55a5f19bfdf99b28b5340d00","eb",40,53,2,39,4241,2725654,"64e50290df62995c3043a679",2,0,0,2,2,0.0256410256410256
"55a5f19bfdf99b28b5340d00","eb",39,52,2,37,4252,2729915,"64e50290df62995c3043a679",2,0,0,2,3,0.0540540540540541
"55a5f19bfdf99b28b5340d00","eb",30,25,2,27,3373,2733292,"64e50290df62995c3043a679",2,0,0,2,4,0.111111111111111
"55a5f19bfdf99b28b5340d00","eb",50,41,2,49,4453,2737749,"64e50290df62995c3043a679",2,0,0,2,5,0.0204081632653061
"55a5f19bfdf99b28b5340d00","eb",32,52,2,31,5398,2743155,"64e50290df62995c3043a679",2,0,0,2,6,0.032258064516129
"55a5f19bfdf99b28b5340d00","eb",26,39,2,24,5687,2748847,"64e50290df62995c3043a679",2,0,0,2,7,0.0833333333333333
"55a5f19bfdf99b28b5340d00","eb",42,47,2,39,5879,2754738,"64e50290df62995c3043a679",2,0,0,2,8,0.0769230769230769
"55a5f19bfdf99b28b5340d00","eb",34,43,2,32,2963,2757708,"64e50290df62995c3043a679",2,0,0,2,9,0.0625
"55a5f19bfdf99b28b5340d00","eb",45,36,2,43,4176,2761887,"64e50290df62995c3043a679",2,0,0,2,10,0.0465116279069767
"55a5f19bfdf99b28b5340d00","eb",48,30,2,43,3608,2765499,"64e50290df62995c3043a679",2,0,0,2,11,0.116279069767442
"55a5f19bfdf99b28b5340d00","eb",52,43,2,49,3990,2769496,"64e50290df62995c3043a679",2,0,0,2,12,0.0612244897959184
"55a5f19bfdf99b28b5340d00","eb",44,30,2,39,3675,2773178,"64e50290df62995c3043a679",2,0,0,2,13,0.128205128205128
"55a5f19bfdf99b28b5340d00","eb",41,31,2,39,3305,2776488,"64e50290df62995c3043a679",2,0,0,2,14,0.0512820512820513
"55a5f19bfdf99b28b5340d00","eb",35,39,2,34,3334,2779833,"64e50290df62995c3043a679",2,0,0,2,15,0.0294117647058824
"55a5f19bfdf99b28b5340d00","br",18,-3,2,273,3311,2789575,"64e50290df62995c3043a679",2,11,-13,2,1,0.0659340659340659
"55a5f19bfdf99b28b5340d00","br",29,29,2,296,595,2790176,"64e50290df62995c3043a679",2,5,-17,2,2,0.097972972972973
"55a5f19bfdf99b28b5340d00","br",15,-28,2,261,2688,2792870,"64e50290df62995c3043a679",2,-25,-13,2,3,0.0574712643678161
"55a5f19bfdf99b28b5340d00","br",18,23,2,242,2138,2795022,"64e50290df62995c3043a679",2,20,26,2,4,0.0743801652892562
"55a5f19bfdf99b28b5340d00","br",13,30,2,214,5476,2800502,"64e50290df62995c3043a679",2,-18,5,2,5,0.0607476635514019
"55a5f19bfdf99b28b5340d00","br",14,-26,2,239,4249,2804762,"64e50290df62995c3043a679",2,-23,19,2,6,0.0585774058577406
"55a5f19bfdf99b28b5340d00","br",12,-27,2,225,3635,2808409,"64e50290df62995c3043a679",2,-30,19,2,7,0.0533333333333333
"55a5f19bfdf99b28b5340d00","br",12,-12,2,227,2448,2810864,"64e50290df62995c3043a679",2,29,5,2,8,0.052863436123348
"55a5f19bfdf99b28b5340d00","br",15,-4,2,212,1783,2812675,"64e50290df62995c3043a679",2,4,-14,2,9,0.0707547169811321
"55a5f19bfdf99b28b5340d00","br",13,-30,2,267,2894,2815575,"64e50290df62995c3043a679",2,-4,-15,2,10,0.048689138576779
"55a5f19bfdf99b28b5340d00","br",13,25,2,247,2586,2818167,"64e50290df62995c3043a679",2,-22,-5,2,11,0.0526315789473684
"55a5f19bfdf99b28b5340d00","br",12,28,2,222,4323,2822500,"64e50290df62995c3043a679",2,9,-10,2,12,0.0540540540540541
"55a5f19bfdf99b28b5340d00","br",11,26,2,231,2949,2825456,"64e50290df62995c3043a679",2,-6,-16,2,13,0.0476190476190476
"55a5f19bfdf99b28b5340d00","br",20,-24,2,281,3073,2828536,"64e50290df62995c3043a679",2,-9,7,2,14,0.0711743772241993
"55a5f19bfdf99b28b5340d00","br",13,-18,2,266,2537,2831081,"64e50290df62995c3043a679",2,11,25,2,15,0.0488721804511278
"55a5f19bfdf99b28b5340d00","pog",315,289,2,339,3009,2846276,"64e50290df62995c3043a679",2,0,0,2,1,24
"55a5f19bfdf99b28b5340d00","pog",293,379,2,307,3061,2849343,"64e50290df62995c3043a679",2,0,0,2,2,14
"55a5f19bfdf99b28b5340d00","pog",312,314,2,331,3494,2852843,"64e50290df62995c3043a679",2,0,0,2,3,19
"55a5f19bfdf99b28b5340d00","pog",303,365,2,309,2798,2855646,"64e50290df62995c3043a679",2,0,0,2,4,6
"55a5f19bfdf99b28b5340d00","pog",289,293,2,304,2137,2857789,"64e50290df62995c3043a679",2,0,0,2,5,15
"55a5f19bfdf99b28b5340d00","pog",309,353,2,327,2783,2860578,"64e50290df62995c3043a679",2,0,0,2,6,18
"55a5f19bfdf99b28b5340d00","pog",298,390,2,303,3267,2863850,"64e50290df62995c3043a679",2,0,0,2,7,5
"55a5f19bfdf99b28b5340d00","pog",316,282,2,338,6969,2870832,"64e50290df62995c3043a679",2,0,0,2,8,22
"55a5f19bfdf99b28b5340d00","pog",357,329,2,380,2436,2873280,"64e50290df62995c3043a679",2,0,0,2,9,23
"55a5f19bfdf99b28b5340d00","pog",304,352,2,318,2937,2876228,"64e50290df62995c3043a679",2,0,0,2,10,14
"55a5f19bfdf99b28b5340d00","pog",354,382,2,371,2313,2878553,"64e50290df62995c3043a679",2,0,0,2,11,17
"55a5f19bfdf99b28b5340d00","pog",349,343,2,374,1399,2879957,"64e50290df62995c3043a679",2,0,0,2,12,25
"55a5f19bfdf99b28b5340d00","pog",325,333,2,335,2038,2882001,"64e50290df62995c3043a679",2,0,0,2,13,10
"55a5f19bfdf99b28b5340d00","pog",361,365,2,371,2194,2884201,"64e50290df62995c3043a679",2,0,0,2,14,10
"55a5f19bfdf99b28b5340d00","pog",312,318,2,325,2343,2886552,"64e50290df62995c3043a679",2,0,0,2,15,13
"55a5f19bfdf99b28b5340d00","zol",0.29,0.31,1,NA,5050,2916183,"64e50290df62995c3043a679",2,-3,14,2,1,0.29
"55a5f19bfdf99b28b5340d00","zol",-0.24,0.24,1,NA,40,2916243,"64e50290df62995c3043a679",2,-26,19,2,2,-0.24
"55a5f19bfdf99b28b5340d00","zol",0.31,-0.21,1,NA,5839,2922092,"64e50290df62995c3043a679",2,27,-24,2,3,0.31
"55a5f19bfdf99b28b5340d00","zol",0.19,-0.29,1,NA,6675,2928785,"64e50290df62995c3043a679",2,-6,22,2,4,0.19
"55a5f19bfdf99b28b5340d00","zol",0.19,-0.09,1,NA,2703,2931496,"64e50290df62995c3043a679",2,-8,24,2,5,0.19
"55a5f19bfdf99b28b5340d00","zol",0.1,-0.4,1,NA,5363,2936876,"64e50290df62995c3043a679",2,-7,-9,2,6,0.1
"55a5f19bfdf99b28b5340d00","zol",0.32,-0.22,1,NA,2393,2939287,"64e50290df62995c3043a679",2,-24,-6,2,7,0.32
"55a5f19bfdf99b28b5340d00","zol",0.3,-0.7,1,NA,6831,2946130,"64e50290df62995c3043a679",2,25,-23,2,8,0.3
"55a5f19bfdf99b28b5340d00","zol",0.3,0.4,1,NA,5105,2951253,"64e50290df62995c3043a679",2,7,-30,2,9,0.3
"55a5f19bfdf99b28b5340d00","zol",0.29,-0.69,1,NA,7809,2959082,"64e50290df62995c3043a679",2,-3,18,2,10,0.29
"55a5f19bfdf99b28b5340d00","zol",0.0500000000000001,-0.45,1,NA,7936,2967029,"64e50290df62995c3043a679",2,-12,-19,2,11,0.0500000000000001
"55a5f19bfdf99b28b5340d00","zol",0.08,-0.38,1,NA,4385,2971433,"64e50290df62995c3043a679",2,-22,27,2,12,0.08
"55a5f19bfdf99b28b5340d00","zol",0.2,-0.5,1,NA,4489,2975927,"64e50290df62995c3043a679",2,-29,-5,2,13,0.2
"55a5f19bfdf99b28b5340d00","zol",0.11,-0.31,1,NA,2795,2978727,"64e50290df62995c3043a679",2,-22,-8,2,14,0.11
"55a5f19bfdf99b28b5340d00","zol",-0.04,-0.26,1,NA,5955,2984692,"64e50290df62995c3043a679",2,19,-21,2,15,-0.04
"55b508f4fdf99b1c26c21c69","pz",24,45,1,22,6434,195152,"64e50c10068e51e8562a66d7",1,NA,NA,3,1,0.0909090909090909
"55b508f4fdf99b1c26c21c69","pz",51,39,1,46,8000,203167,"64e50c10068e51e8562a66d7",1,NA,NA,3,2,0.108695652173913
"55b508f4fdf99b1c26c21c69","pz",60,23,1,52,4935,208116,"64e50c10068e51e8562a66d7",1,NA,NA,3,3,0.153846153846154
"55b508f4fdf99b1c26c21c69","pz",65,36,1,56,4211,212345,"64e50c10068e51e8562a66d7",1,NA,NA,3,4,0.160714285714286
"55b508f4fdf99b1c26c21c69","pz",57,45,1,46,4761,217112,"64e50c10068e51e8562a66d7",1,NA,NA,3,5,0.239130434782609
"55b508f4fdf99b1c26c21c69","pz",42,44,1,37,5125,222245,"64e50c10068e51e8562a66d7",1,NA,NA,3,6,0.135135135135135
"55b508f4fdf99b1c26c21c69","pz",26,47,1,23,5846,228094,"64e50c10068e51e8562a66d7",1,NA,NA,3,7,0.130434782608696
"55b508f4fdf99b1c26c21c69","pz",61,30,1,51,6415,234514,"64e50c10068e51e8562a66d7",1,NA,NA,3,8,0.196078431372549
"55b508f4fdf99b1c26c21c69","pz",39,36,1,34,3694,238213,"64e50c10068e51e8562a66d7",1,NA,NA,3,9,0.147058823529412
"55b508f4fdf99b1c26c21c69","pz",52,42,1,45,6000,244216,"64e50c10068e51e8562a66d7",1,NA,NA,3,10,0.155555555555556
"55b508f4fdf99b1c26c21c69","pz",57,60,1,47,4915,249144,"64e50c10068e51e8562a66d7",1,NA,NA,3,11,0.212765957446809
"55b508f4fdf99b1c26c21c69","pz",62,43,1,52,6165,255317,"64e50c10068e51e8562a66d7",1,NA,NA,3,12,0.192307692307692
"55b508f4fdf99b1c26c21c69","pz",65,45,1,59,8000,263325,"64e50c10068e51e8562a66d7",1,NA,NA,3,13,0.101694915254237
"55b508f4fdf99b1c26c21c69","pz",66,58,1,55,2620,265952,"64e50c10068e51e8562a66d7",1,NA,NA,3,14,0.2
"55b508f4fdf99b1c26c21c69","pz",51,37,1,43,5765,271743,"64e50c10068e51e8562a66d7",1,NA,NA,3,15,0.186046511627907
"55b508f4fdf99b1c26c21c69","eb",22,37,1,28,4702,336098,"64e50c10068e51e8562a66d7",1,0,0,3,1,0.214285714285714
"55b508f4fdf99b1c26c21c69","eb",37,43,1,46,6795,342908,"64e50c10068e51e8562a66d7",1,0,0,3,2,0.195652173913043
"55b508f4fdf99b1c26c21c69","eb",21,27,1,25,6458,349373,"64e50c10068e51e8562a66d7",1,0,0,3,3,0.16
"55b508f4fdf99b1c26c21c69","eb",37,35,1,46,5877,355258,"64e50c10068e51e8562a66d7",1,0,0,3,4,0.195652173913043
"55b508f4fdf99b1c26c21c69","eb",25,30,1,29,4230,359492,"64e50c10068e51e8562a66d7",1,0,0,3,5,0.137931034482759
"55b508f4fdf99b1c26c21c69","eb",40,30,1,47,7395,366891,"64e50c10068e51e8562a66d7",1,0,0,3,6,0.148936170212766
"55b508f4fdf99b1c26c21c69","eb",37,47,1,46,3883,370780,"64e50c10068e51e8562a66d7",1,0,0,3,7,0.195652173913043
"55b508f4fdf99b1c26c21c69","eb",25,47,1,28,4854,375648,"64e50c10068e51e8562a66d7",1,0,0,3,8,0.107142857142857
"55b508f4fdf99b1c26c21c69","eb",42,46,1,51,6303,381964,"64e50c10068e51e8562a66d7",1,0,0,3,9,0.176470588235294
"55b508f4fdf99b1c26c21c69","eb",27,45,1,34,8000,389988,"64e50c10068e51e8562a66d7",1,0,0,3,10,0.205882352941176
"55b508f4fdf99b1c26c21c69","eb",23,33,1,26,7416,397407,"64e50c10068e51e8562a66d7",1,0,0,3,11,0.115384615384615
"55b508f4fdf99b1c26c21c69","eb",33,33,1,43,8000,405423,"64e50c10068e51e8562a66d7",1,0,0,3,12,0.232558139534884
"55b508f4fdf99b1c26c21c69","eb",27,27,1,40,44,405473,"64e50c10068e51e8562a66d7",1,0,0,3,13,0.325
"55b508f4fdf99b1c26c21c69","eb",20,45,1,24,5884,411373,"64e50c10068e51e8562a66d7",1,0,0,3,14,0.166666666666667
"55b508f4fdf99b1c26c21c69","eb",28,35,1,32,6613,417990,"64e50c10068e51e8562a66d7",1,0,0,3,15,0.125
"55b508f4fdf99b1c26c21c69","pog",286,370,2,319,8000,475786,"64e50c10068e51e8562a66d7",1,0,0,3,1,33
"55b508f4fdf99b1c26c21c69","pog",307,309,2,346,5410,481199,"64e50c10068e51e8562a66d7",1,0,0,3,2,39
"55b508f4fdf99b1c26c21c69","pog",332,334,2,374,4951,486158,"64e50c10068e51e8562a66d7",1,0,0,3,3,42
"55b508f4fdf99b1c26c21c69","pog",272,370,2,309,6875,493053,"64e50c10068e51e8562a66d7",1,0,0,3,4,37
"55b508f4fdf99b1c26c21c69","pog",303,307,2,337,3576,496631,"64e50c10068e51e8562a66d7",1,0,0,3,5,34
"55b508f4fdf99b1c26c21c69","pog",297,329,2,335,4937,501575,"64e50c10068e51e8562a66d7",1,0,0,3,6,38
"55b508f4fdf99b1c26c21c69","pog",339,327,2,377,3666,505253,"64e50c10068e51e8562a66d7",1,0,0,3,7,38
"55b508f4fdf99b1c26c21c69","pog",311,295,2,353,4229,509484,"64e50c10068e51e8562a66d7",1,0,0,3,8,42
"55b508f4fdf99b1c26c21c69","pog",318,340,2,361,5890,515376,"64e50c10068e51e8562a66d7",1,0,0,3,9,43
"55b508f4fdf99b1c26c21c69","pog",297,359,2,335,5584,520985,"64e50c10068e51e8562a66d7",1,0,0,3,10,38
"55b508f4fdf99b1c26c21c69","pog",288,310,2,323,5165,526151,"64e50c10068e51e8562a66d7",1,0,0,3,11,35
"55b508f4fdf99b1c26c21c69","pog",285,327,2,305,4247,530401,"64e50c10068e51e8562a66d7",1,0,0,3,12,20
"55b508f4fdf99b1c26c21c69","pog",318,308,2,347,4447,534851,"64e50c10068e51e8562a66d7",1,0,0,3,13,29
"55b508f4fdf99b1c26c21c69","pog",312,296,2,343,2387,537240,"64e50c10068e51e8562a66d7",1,0,0,3,14,31
"55b508f4fdf99b1c26c21c69","pog",287,387,2,322,6652,543901,"64e50c10068e51e8562a66d7",1,0,0,3,15,35
"55b508f4fdf99b1c26c21c69","br",21,13,2,211,2896,572446,"64e50c10068e51e8562a66d7",1,25,-12,3,1,0.0995260663507109
"55b508f4fdf99b1c26c21c69","br",22,-13,2,285,4691,577157,"64e50c10068e51e8562a66d7",1,-12,-5,3,2,0.0771929824561404
"55b508f4fdf99b1c26c21c69","br",20,11,2,206,5911,583079,"64e50c10068e51e8562a66d7",1,-13,29,3,3,0.0970873786407767
"55b508f4fdf99b1c26c21c69","br",21,19,2,263,2994,586082,"64e50c10068e51e8562a66d7",1,15,4,3,4,0.0798479087452472
"55b508f4fdf99b1c26c21c69","br",19,-2,2,254,6547,592632,"64e50c10068e51e8562a66d7",1,3,-28,3,5,0.0748031496062992
"55b508f4fdf99b1c26c21c69","br",27,-7,2,274,7032,599668,"64e50c10068e51e8562a66d7",1,-13,15,3,6,0.0985401459854015
"55b508f4fdf99b1c26c21c69","br",25,22,2,259,2237,601910,"64e50c10068e51e8562a66d7",1,26,-29,3,7,0.0965250965250965
"55b508f4fdf99b1c26c21c69","br",25,-7,2,273,6875,608798,"64e50c10068e51e8562a66d7",1,2,-16,3,8,0.0915750915750916
"55b508f4fdf99b1c26c21c69","br",27,21,2,271,5781,614582,"64e50c10068e51e8562a66d7",1,14,6,3,9,0.0996309963099631
"55b508f4fdf99b1c26c21c69","br",27,11,2,299,6030,620614,"64e50c10068e51e8562a66d7",1,12,-1,3,10,0.0903010033444816
"55b508f4fdf99b1c26c21c69","br",23,25,2,222,5175,625795,"64e50c10068e51e8562a66d7",1,-12,3,3,11,0.103603603603604
"55b508f4fdf99b1c26c21c69","br",23,-18,2,244,8000,633812,"64e50c10068e51e8562a66d7",1,-27,14,3,12,0.0942622950819672
"55b508f4fdf99b1c26c21c69","br",24,16,2,277,5749,639564,"64e50c10068e51e8562a66d7",1,25,-4,3,13,0.0866425992779783
"55b508f4fdf99b1c26c21c69","br",24,6,2,255,5496,645064,"64e50c10068e51e8562a66d7",1,-12,6,3,14,0.0941176470588235
"55b508f4fdf99b1c26c21c69","br",25,-29,2,277,7095,652164,"64e50c10068e51e8562a66d7",1,11,16,3,15,0.0902527075812274
"55b508f4fdf99b1c26c21c69","zol",0.9,-0.3,1,NA,8000,685295,"64e50c10068e51e8562a66d7",1,16,-5,3,1,0.9
"55b508f4fdf99b1c26c21c69","zol",0.66,0.44,1,NA,5813,691116,"64e50c10068e51e8562a66d7",1,4,4,3,2,0.66
"55b508f4fdf99b1c26c21c69","zol",1.33,-0.03,1,NA,7339,698475,"64e50c10068e51e8562a66d7",1,-4,-15,3,3,1.33
"55b508f4fdf99b1c26c21c69","zol",0.77,-0.57,1,NA,3810,702309,"64e50c10068e51e8562a66d7",1,4,29,3,4,0.77
"55b508f4fdf99b1c26c21c69","zol",1.56,0.14,1,NA,4286,706607,"64e50c10068e51e8562a66d7",1,24,-17,3,5,1.56
"55b508f4fdf99b1c26c21c69","zol",0.94,-0.64,1,NA,5377,712007,"64e50c10068e51e8562a66d7",1,29,-3,3,6,0.94
"55b508f4fdf99b1c26c21c69","zol",1.21,-0.21,1,NA,4614,716638,"64e50c10068e51e8562a66d7",1,6,18,3,7,1.21
"55b508f4fdf99b1c26c21c69","zol",0.88,-0.08,1,NA,5666,722333,"64e50c10068e51e8562a66d7",1,-9,9,3,8,0.88
"55b508f4fdf99b1c26c21c69","zol",1.23,-0.73,1,NA,3644,725997,"64e50c10068e51e8562a66d7",1,-28,27,3,9,1.23
"55b508f4fdf99b1c26c21c69","zol",0.8,-0.6,1,NA,5999,732024,"64e50c10068e51e8562a66d7",1,20,-15,3,10,0.8
"55b508f4fdf99b1c26c21c69","zol",0.27,-0.57,1,NA,6341,738390,"64e50c10068e51e8562a66d7",1,1,7,3,11,0.27
"55b508f4fdf99b1c26c21c69","zol",0.81,0.49,1,NA,5666,744082,"64e50c10068e51e8562a66d7",1,-22,30,3,12,0.81
"55b508f4fdf99b1c26c21c69","zol",1.09,0.41,1,NA,5565,749662,"64e50c10068e51e8562a66d7",1,16,20,3,13,1.09
"55b508f4fdf99b1c26c21c69","zol",1.34,0.46,1,NA,5146,754812,"64e50c10068e51e8562a66d7",1,24,-18,3,14,1.34
"55b508f4fdf99b1c26c21c69","zol",1.22,0.58,1,NA,3432,758249,"64e50c10068e51e8562a66d7",1,-24,-20,3,15,1.22
"55b508f4fdf99b1c26c21c69","pog",196,214,1,165,4085,782242,"64e50c10068e51e8562a66d7",2,0,0,3,1,31
"55b508f4fdf99b1c26c21c69","pog",166,102,1,139,6113,788358,"64e50c10068e51e8562a66d7",2,0,0,3,2,27
"55b508f4fdf99b1c26c21c69","pog",201,135,1,173,4414,792777,"64e50c10068e51e8562a66d7",2,0,0,3,3,28
"55b508f4fdf99b1c26c21c69","pog",152,186,1,125,6207,798991,"64e50c10068e51e8562a66d7",2,0,0,3,4,27
"55b508f4fdf99b1c26c21c69","pog",151,189,1,130,4513,803508,"64e50c10068e51e8562a66d7",2,0,0,3,5,21
"55b508f4fdf99b1c26c21c69","pog",187,133,1,159,6596,810111,"64e50c10068e51e8562a66d7",2,0,0,3,6,28
"55b508f4fdf99b1c26c21c69","pog",157,165,1,131,4985,815102,"64e50c10068e51e8562a66d7",2,0,0,3,7,26
"55b508f4fdf99b1c26c21c69","pog",166,216,1,142,5667,820776,"64e50c10068e51e8562a66d7",2,0,0,3,8,24
"55b508f4fdf99b1c26c21c69","pog",181,119,1,148,5076,825857,"64e50c10068e51e8562a66d7",2,0,0,3,9,33
"55b508f4fdf99b1c26c21c69","pog",211,201,1,182,6066,831927,"64e50c10068e51e8562a66d7",2,0,0,3,10,29
"55b508f4fdf99b1c26c21c69","pog",200,158,1,173,5609,837540,"64e50c10068e51e8562a66d7",2,0,0,3,11,27
"55b508f4fdf99b1c26c21c69","pog",194,146,1,162,5895,843441,"64e50c10068e51e8562a66d7",2,0,0,3,12,32
"55b508f4fdf99b1c26c21c69","pog",182,110,1,155,6386,849831,"64e50c10068e51e8562a66d7",2,0,0,3,13,27
"55b508f4fdf99b1c26c21c69","pog",213,171,1,189,7419,857289,"64e50c10068e51e8562a66d7",2,0,0,3,14,24
"55b508f4fdf99b1c26c21c69","pog",180,130,1,150,4518,861811,"64e50c10068e51e8562a66d7",2,0,0,3,15,30
"55b508f4fdf99b1c26c21c69","pz",36,23,2,43,4161,897869,"64e50c10068e51e8562a66d7",2,NA,NA,3,1,0.162790697674419
"55b508f4fdf99b1c26c21c69","pz",19,22,2,23,4777,902654,"64e50c10068e51e8562a66d7",2,NA,NA,3,2,0.173913043478261
"55b508f4fdf99b1c26c21c69","pz",35,55,2,41,6101,908759,"64e50c10068e51e8562a66d7",2,NA,NA,3,3,0.146341463414634
"55b508f4fdf99b1c26c21c69","pz",35,35,2,46,1133,909904,"64e50c10068e51e8562a66d7",2,NA,NA,3,4,0.239130434782609
"55b508f4fdf99b1c26c21c69","pz",19,50,2,22,6148,916056,"64e50c10068e51e8562a66d7",2,NA,NA,3,5,0.136363636363636
"55b508f4fdf99b1c26c21c69","pz",37,31,2,46,3893,919953,"64e50c10068e51e8562a66d7",2,NA,NA,3,6,0.195652173913043
"55b508f4fdf99b1c26c21c69","pz",31,29,2,36,2562,922519,"64e50c10068e51e8562a66d7",2,NA,NA,3,7,0.138888888888889
"55b508f4fdf99b1c26c21c69","pz",45,20,2,52,4298,926823,"64e50c10068e51e8562a66d7",2,NA,NA,3,8,0.134615384615385
"55b508f4fdf99b1c26c21c69","pz",33,39,2,38,3539,930365,"64e50c10068e51e8562a66d7",2,NA,NA,3,9,0.131578947368421
"55b508f4fdf99b1c26c21c69","pz",21,42,2,24,4531,934903,"64e50c10068e51e8562a66d7",2,NA,NA,3,10,0.125
"55b508f4fdf99b1c26c21c69","pz",24,46,2,31,5916,940821,"64e50c10068e51e8562a66d7",2,NA,NA,3,11,0.225806451612903
"55b508f4fdf99b1c26c21c69","pz",32,37,2,36,5456,946291,"64e50c10068e51e8562a66d7",2,NA,NA,3,12,0.111111111111111
"55b508f4fdf99b1c26c21c69","pz",18,45,2,21,4625,950919,"64e50c10068e51e8562a66d7",2,NA,NA,3,13,0.142857142857143
"55b508f4fdf99b1c26c21c69","pz",17,52,2,20,4781,955703,"64e50c10068e51e8562a66d7",2,NA,NA,3,14,0.15
"55b508f4fdf99b1c26c21c69","pz",45,56,2,54,5871,961577,"64e50c10068e51e8562a66d7",2,NA,NA,3,15,0.166666666666667
"55b508f4fdf99b1c26c21c69","eb",59,42,2,49,6245,994837,"64e50c10068e51e8562a66d7",2,0,0,3,1,0.204081632653061
"55b508f4fdf99b1c26c21c69","eb",38,29,2,28,5625,1000468,"64e50c10068e51e8562a66d7",2,0,0,3,2,0.357142857142857
"55b508f4fdf99b1c26c21c69","eb",51,37,2,42,5133,1005605,"64e50c10068e51e8562a66d7",2,0,0,3,3,0.214285714285714
"55b508f4fdf99b1c26c21c69","eb",50,31,2,42,5931,1011555,"64e50c10068e51e8562a66d7",2,0,0,3,4,0.19047619047619
"55b508f4fdf99b1c26c21c69","eb",45,37,2,32,3733,1015306,"64e50c10068e51e8562a66d7",2,0,0,3,5,0.40625
"55b508f4fdf99b1c26c21c69","eb",51,43,2,43,6198,1021517,"64e50c10068e51e8562a66d7",2,0,0,3,6,0.186046511627907
"55b508f4fdf99b1c26c21c69","eb",56,44,2,46,3231,1024751,"64e50c10068e51e8562a66d7",2,0,0,3,7,0.217391304347826
"55b508f4fdf99b1c26c21c69","eb",56,46,2,48,6077,1030832,"64e50c10068e51e8562a66d7",2,0,0,3,8,0.166666666666667
"55b508f4fdf99b1c26c21c69","eb",51,54,2,42,3977,1034818,"64e50c10068e51e8562a66d7",2,0,0,3,9,0.214285714285714
"55b508f4fdf99b1c26c21c69","eb",41,52,2,32,4246,1039068,"64e50c10068e51e8562a66d7",2,0,0,3,10,0.28125
"55b508f4fdf99b1c26c21c69","eb",62,41,2,53,4380,1043454,"64e50c10068e51e8562a66d7",2,0,0,3,11,0.169811320754717
"55b508f4fdf99b1c26c21c69","eb",24,35,2,24,4442,1047900,"64e50c10068e51e8562a66d7",2,0,0,3,12,0
"55b508f4fdf99b1c26c21c69","eb",44,30,2,37,3930,1051833,"64e50c10068e51e8562a66d7",2,0,0,3,13,0.189189189189189
"55b508f4fdf99b1c26c21c69","eb",37,29,2,31,4905,1056741,"64e50c10068e51e8562a66d7",2,0,0,3,14,0.193548387096774
"55b508f4fdf99b1c26c21c69","eb",29,50,2,25,5547,1062301,"64e50c10068e51e8562a66d7",2,0,0,3,15,0.16
"55b508f4fdf99b1c26c21c69","zol",-0.32,-0.38,2,NA,6490,1096228,"64e50c10068e51e8562a66d7",2,21,-14,3,1,0.32
"55b508f4fdf99b1c26c21c69","zol",-1.4,0.1,2,NA,3738,1099976,"64e50c10068e51e8562a66d7",2,-28,-10,3,2,1.4
"55b508f4fdf99b1c26c21c69","zol",-1.53,0.13,2,NA,5083,1105083,"64e50c10068e51e8562a66d7",2,-23,25,3,3,1.53
"55b508f4fdf99b1c26c21c69","zol",-1.64,0.74,2,NA,5233,1110320,"64e50c10068e51e8562a66d7",2,22,28,3,4,1.64
"55b508f4fdf99b1c26c21c69","zol",-0.59,0.59,2,NA,5747,1116083,"64e50c10068e51e8562a66d7",2,-4,-7,3,5,0.59
"55b508f4fdf99b1c26c21c69","zol",-1.09,-0.51,2,NA,5995,1122083,"64e50c10068e51e8562a66d7",2,29,-11,3,6,1.09
"55b508f4fdf99b1c26c21c69","zol",-0.6,-0.2,2,NA,5065,1127201,"64e50c10068e51e8562a66d7",2,-12,20,3,7,0.6
"55b508f4fdf99b1c26c21c69","zol",-0.38,-0.62,2,NA,2841,1130108,"64e50c10068e51e8562a66d7",2,30,0,3,8,0.38
"55b508f4fdf99b1c26c21c69","zol",-0.99,0.19,2,NA,3243,1133365,"64e50c10068e51e8562a66d7",2,3,-5,3,9,0.99
"55b508f4fdf99b1c26c21c69","zol",-0.91,-0.49,2,NA,5487,1138882,"64e50c10068e51e8562a66d7",2,12,24,3,10,0.91
"55b508f4fdf99b1c26c21c69","zol",-1.26,0.56,2,NA,4884,1143771,"64e50c10068e51e8562a66d7",2,27,7,3,11,1.26
"55b508f4fdf99b1c26c21c69","zol",-0.73,0.73,2,NA,5167,1148965,"64e50c10068e51e8562a66d7",2,-12,-6,3,12,0.73
"55b508f4fdf99b1c26c21c69","zol",-1.27,0.07,2,NA,4945,1153915,"64e50c10068e51e8562a66d7",2,3,-22,3,13,1.27
"55b508f4fdf99b1c26c21c69","zol",-1.16,-0.74,2,NA,4747,1158665,"64e50c10068e51e8562a66d7",2,12,-25,3,14,1.16
"55b508f4fdf99b1c26c21c69","zol",-1.12,0.42,2,NA,3912,1162581,"64e50c10068e51e8562a66d7",2,15,-23,3,15,1.12
"55b508f4fdf99b1c26c21c69","br",-15,-9,1,287,3886,1182316,"64e50c10068e51e8562a66d7",2,-20,-19,3,1,0.0522648083623693
"55b508f4fdf99b1c26c21c69","br",-8,15,1,235,4445,1186778,"64e50c10068e51e8562a66d7",2,18,-22,3,2,0.0340425531914894
"55b508f4fdf99b1c26c21c69","br",-15,27,1,299,7262,1194045,"64e50c10068e51e8562a66d7",2,-18,23,3,3,0.0501672240802676
"55b508f4fdf99b1c26c21c69","br",-16,30,1,229,6880,1200927,"64e50c10068e51e8562a66d7",2,-24,-1,3,4,0.0698689956331878
"55b508f4fdf99b1c26c21c69","br",-15,30,1,296,6328,1207260,"64e50c10068e51e8562a66d7",2,-3,-28,3,5,0.0506756756756757
"55b508f4fdf99b1c26c21c69","br",-15,10,1,268,3504,1210772,"64e50c10068e51e8562a66d7",2,-13,-6,3,6,0.0559701492537313
"55b508f4fdf99b1c26c21c69","br",-15,9,1,215,4477,1215260,"64e50c10068e51e8562a66d7",2,8,5,3,7,0.0697674418604651
"55b508f4fdf99b1c26c21c69","br",-22,-12,1,226,3994,1219257,"64e50c10068e51e8562a66d7",2,-27,-18,3,8,0.0973451327433628
"55b508f4fdf99b1c26c21c69","br",-15,30,1,214,6611,1225892,"64e50c10068e51e8562a66d7",2,-18,-5,3,9,0.0700934579439252
"55b508f4fdf99b1c26c21c69","br",-15,25,1,290,6443,1232344,"64e50c10068e51e8562a66d7",2,10,-30,3,10,0.0517241379310345
"55b508f4fdf99b1c26c21c69","br",-18,20,1,273,8000,1240359,"64e50c10068e51e8562a66d7",2,1,-21,3,11,0.0659340659340659
"55b508f4fdf99b1c26c21c69","br",29,29,1,272,17,1240415,"64e50c10068e51e8562a66d7",2,18,-20,3,12,-0.106617647058824
"55b508f4fdf99b1c26c21c69","br",-16,8,1,263,4399,1244831,"64e50c10068e51e8562a66d7",2,-29,-8,3,13,0.0608365019011407
"55b508f4fdf99b1c26c21c69","br",-14,10,1,273,4770,1249616,"64e50c10068e51e8562a66d7",2,7,17,3,14,0.0512820512820513
"55b508f4fdf99b1c26c21c69","br",-17,-11,1,227,4887,1254515,"64e50c10068e51e8562a66d7",2,18,-20,3,15,0.0748898678414097
"560379c9e372c00011bd4a90","pz",21,45,2,33,8000,356241,"64de66644aa88cd792d1eef0",1,NA,NA,4,1,0.363636363636364
"560379c9e372c00011bd4a90","pz",19,44,2,29,8000,364243,"64de66644aa88cd792d1eef0",1,NA,NA,4,2,0.344827586206897
"560379c9e372c00011bd4a90","pz",22,24,2,35,8000,372246,"64de66644aa88cd792d1eef0",1,NA,NA,4,3,0.371428571428571
"560379c9e372c00011bd4a90","pz",24,32,2,45,4695,376949,"64de66644aa88cd792d1eef0",1,NA,NA,4,4,0.466666666666667
"560379c9e372c00011bd4a90","pz",24,36,2,54,8000,384953,"64de66644aa88cd792d1eef0",1,NA,NA,4,5,0.555555555555556
"560379c9e372c00011bd4a90","pz",22,33,2,30,8000,392967,"64de66644aa88cd792d1eef0",1,NA,NA,4,6,0.266666666666667
"560379c9e372c00011bd4a90","pz",27,43,2,59,8000,400981,"64de66644aa88cd792d1eef0",1,NA,NA,4,7,0.542372881355932
"560379c9e372c00011bd4a90","pz",27,44,2,58,8000,408994,"64de66644aa88cd792d1eef0",1,NA,NA,4,8,0.53448275862069
"560379c9e372c00011bd4a90","pz",24,53,2,50,8000,416999,"64de66644aa88cd792d1eef0",1,NA,NA,4,9,0.52
"560379c9e372c00011bd4a90","pz",32,56,2,54,8000,425001,"64de66644aa88cd792d1eef0",1,NA,NA,4,10,0.407407407407407
"560379c9e372c00011bd4a90","pz",29,24,2,46,8000,433003,"64de66644aa88cd792d1eef0",1,NA,NA,4,11,0.369565217391304
"560379c9e372c00011bd4a90","pz",25,35,2,37,8000,441005,"64de66644aa88cd792d1eef0",1,NA,NA,4,12,0.324324324324324
"560379c9e372c00011bd4a90","pz",26,51,2,41,8000,449008,"64de66644aa88cd792d1eef0",1,NA,NA,4,13,0.365853658536585
"560379c9e372c00011bd4a90","pz",26,55,2,56,8000,457011,"64de66644aa88cd792d1eef0",1,NA,NA,4,14,0.535714285714286
"560379c9e372c00011bd4a90","pz",14,33,2,24,8000,465014,"64de66644aa88cd792d1eef0",1,NA,NA,4,15,0.416666666666667
"560379c9e372c00011bd4a90","eb",39,51,2,34,8000,544935,"64de66644aa88cd792d1eef0",1,0,0,4,1,0.147058823529412
"560379c9e372c00011bd4a90","eb",37,36,2,34,8000,552939,"64de66644aa88cd792d1eef0",1,0,0,4,2,0.0882352941176471
"560379c9e372c00011bd4a90","eb",45,33,2,46,8000,560943,"64de66644aa88cd792d1eef0",1,0,0,4,3,-0.0217391304347826
"560379c9e372c00011bd4a90","eb",27,36,2,24,8000,568946,"64de66644aa88cd792d1eef0",1,0,0,4,4,0.125
"560379c9e372c00011bd4a90","eb",33,28,2,33,8000,576954,"64de66644aa88cd792d1eef0",1,0,0,4,5,0
"560379c9e372c00011bd4a90","eb",31,24,2,29,8000,584958,"64de66644aa88cd792d1eef0",1,0,0,4,6,0.0689655172413793
"560379c9e372c00011bd4a90","eb",27,50,2,27,8000,592978,"64de66644aa88cd792d1eef0",1,0,0,4,7,0
"560379c9e372c00011bd4a90","eb",40,25,2,39,8000,600980,"64de66644aa88cd792d1eef0",1,0,0,4,8,0.0256410256410256
"560379c9e372c00011bd4a90","eb",37,29,2,34,8000,608983,"64de66644aa88cd792d1eef0",1,0,0,4,9,0.0882352941176471
"560379c9e372c00011bd4a90","eb",41,34,2,39,8000,616987,"64de66644aa88cd792d1eef0",1,0,0,4,10,0.0512820512820513
"560379c9e372c00011bd4a90","eb",54,32,2,52,8000,624989,"64de66644aa88cd792d1eef0",1,0,0,4,11,0.0384615384615385
"560379c9e372c00011bd4a90","eb",28,53,2,29,8000,632991,"64de66644aa88cd792d1eef0",1,0,0,4,12,-0.0344827586206897
"560379c9e372c00011bd4a90","eb",28,26,2,29,8000,640996,"64de66644aa88cd792d1eef0",1,0,0,4,13,-0.0344827586206897
"560379c9e372c00011bd4a90","eb",53,29,2,52,8000,648999,"64de66644aa88cd792d1eef0",1,0,0,4,14,0.0192307692307692
"560379c9e372c00011bd4a90","eb",58,26,2,54,8000,657002,"64de66644aa88cd792d1eef0",1,0,0,4,15,0.0740740740740741
"560379c9e372c00011bd4a90","pog",330,298,2,346,8000,723307,"64de66644aa88cd792d1eef0",1,0,0,4,1,16
"560379c9e372c00011bd4a90","pog",310,284,2,324,8000,731309,"64de66644aa88cd792d1eef0",1,0,0,4,2,14
"560379c9e372c00011bd4a90","pog",353,359,2,364,8000,739311,"64de66644aa88cd792d1eef0",1,0,0,4,3,11
"560379c9e372c00011bd4a90","pog",292,336,2,311,8000,747313,"64de66644aa88cd792d1eef0",1,0,0,4,4,19
"560379c9e372c00011bd4a90","pog",287,319,2,300,8000,755319,"64de66644aa88cd792d1eef0",1,0,0,4,5,13
"560379c9e372c00011bd4a90","pog",284,290,2,301,8000,763321,"64de66644aa88cd792d1eef0",1,0,0,4,6,17
"560379c9e372c00011bd4a90","pog",306,344,2,316,8000,771324,"64de66644aa88cd792d1eef0",1,0,0,4,7,10
"560379c9e372c00011bd4a90","pog",304,282,2,318,8000,779327,"64de66644aa88cd792d1eef0",1,0,0,4,8,14
"560379c9e372c00011bd4a90","pog",316,368,2,329,8000,787329,"64de66644aa88cd792d1eef0",1,0,0,4,9,13
"560379c9e372c00011bd4a90","pog",358,306,2,371,8000,795332,"64de66644aa88cd792d1eef0",1,0,0,4,10,13
"560379c9e372c00011bd4a90","pog",362,332,2,379,8000,803339,"64de66644aa88cd792d1eef0",1,0,0,4,11,17
"560379c9e372c00011bd4a90","pog",336,286,2,344,8000,811343,"64de66644aa88cd792d1eef0",1,0,0,4,12,8
"560379c9e372c00011bd4a90","pog",288,312,2,303,8000,819348,"64de66644aa88cd792d1eef0",1,0,0,4,13,15
"560379c9e372c00011bd4a90","pog",310,308,2,326,8000,827351,"64de66644aa88cd792d1eef0",1,0,0,4,14,16
"560379c9e372c00011bd4a90","pog",345,393,2,358,8000,835353,"64de66644aa88cd792d1eef0",1,0,0,4,15,13
"560379c9e372c00011bd4a90","zol",-1.51,0.41,2,NA,8000,888357,"64de66644aa88cd792d1eef0",1,-22,23,4,1,1.51
"560379c9e372c00011bd4a90","zol",-0.8,-0.4,2,NA,8000,896368,"64de66644aa88cd792d1eef0",1,12,-22,4,2,0.8
"560379c9e372c00011bd4a90","zol",-0.89,-0.21,2,NA,8000,904372,"64de66644aa88cd792d1eef0",1,-3,22,4,3,0.89
"560379c9e372c00011bd4a90","zol",-1.55,0.15,2,NA,8000,912379,"64de66644aa88cd792d1eef0",1,-1,-27,4,4,1.55
"560379c9e372c00011bd4a90","zol",-1.41,0.31,2,NA,5216,917601,"64de66644aa88cd792d1eef0",1,5,-14,4,5,1.41
"560379c9e372c00011bd4a90","zol",-1.32,0.02,2,NA,4596,922205,"64de66644aa88cd792d1eef0",1,8,-21,4,6,1.32
"560379c9e372c00011bd4a90","zol",-0.68,-0.22,2,NA,3900,926116,"64de66644aa88cd792d1eef0",1,-8,0,4,7,0.68
"560379c9e372c00011bd4a90","zol",-1.62,0.12,2,NA,2511,928630,"64de66644aa88cd792d1eef0",1,26,16,4,8,1.62
"560379c9e372c00011bd4a90","zol",-1.5,-0.3,2,NA,3038,931678,"64de66644aa88cd792d1eef0",1,-7,6,4,9,1.5
"560379c9e372c00011bd4a90","zol",-1.5,-0.1,2,NA,2654,934335,"64de66644aa88cd792d1eef0",1,15,-19,4,10,1.5
"560379c9e372c00011bd4a90","zol",-1.71,0.21,2,NA,2789,937129,"64de66644aa88cd792d1eef0",1,-26,-1,4,11,1.71
"560379c9e372c00011bd4a90","zol",-1.31,0.11,2,NA,3213,940344,"64de66644aa88cd792d1eef0",1,-4,-22,4,12,1.31
"560379c9e372c00011bd4a90","zol",-1.71,0.11,2,NA,3190,943540,"64de66644aa88cd792d1eef0",1,24,11,4,13,1.71
"560379c9e372c00011bd4a90","zol",-0.87,0.57,2,NA,8000,951549,"64de66644aa88cd792d1eef0",1,22,-27,4,14,0.87
"560379c9e372c00011bd4a90","zol",-0.97,0.37,2,NA,8000,959555,"64de66644aa88cd792d1eef0",1,8,5,4,15,0.97
"560379c9e372c00011bd4a90","br",18,-24,2,239,4278,997794,"64de66644aa88cd792d1eef0",1,-5,20,4,1,0.0753138075313808
"560379c9e372c00011bd4a90","br",15,6,2,202,3155,1000960,"64de66644aa88cd792d1eef0",1,-4,-30,4,2,0.0742574257425743
"560379c9e372c00011bd4a90","br",17,16,2,286,3940,1004921,"64de66644aa88cd792d1eef0",1,-24,24,4,3,0.0594405594405594
"560379c9e372c00011bd4a90","br",12,-9,2,234,3743,1008671,"64de66644aa88cd792d1eef0",1,11,-12,4,4,0.0512820512820513
"560379c9e372c00011bd4a90","br",16,-23,2,213,8000,1016675,"64de66644aa88cd792d1eef0",1,-18,-5,4,5,0.0751173708920188
"560379c9e372c00011bd4a90","br",16,-15,2,239,5487,1022166,"64de66644aa88cd792d1eef0",1,17,24,4,6,0.0669456066945607
"560379c9e372c00011bd4a90","br",18,25,2,291,4669,1026836,"64de66644aa88cd792d1eef0",1,-24,10,4,7,0.0618556701030928
"560379c9e372c00011bd4a90","br",19,4,2,294,3115,1029953,"64de66644aa88cd792d1eef0",1,24,-7,4,8,0.0646258503401361
"560379c9e372c00011bd4a90","br",15,-24,2,273,3239,1033212,"64de66644aa88cd792d1eef0",1,22,18,4,9,0.0549450549450549
"560379c9e372c00011bd4a90","br",17,-13,2,209,4566,1037782,"64de66644aa88cd792d1eef0",1,-23,-11,4,10,0.0813397129186603
"560379c9e372c00011bd4a90","br",20,-30,2,259,5860,1043644,"64de66644aa88cd792d1eef0",1,-17,24,4,11,0.0772200772200772
"560379c9e372c00011bd4a90","br",17,-23,2,235,3046,1046695,"64de66644aa88cd792d1eef0",1,-27,-14,4,12,0.0723404255319149
"560379c9e372c00011bd4a90","br",16,-18,2,257,5751,1052453,"64de66644aa88cd792d1eef0",1,0,-22,4,13,0.0622568093385214
"560379c9e372c00011bd4a90","br",17,23,2,261,3048,1055504,"64de66644aa88cd792d1eef0",1,25,16,4,14,0.0651340996168582
"560379c9e372c00011bd4a90","br",19,22,2,214,1826,1057332,"64de66644aa88cd792d1eef0",1,8,-1,4,15,0.088785046728972
"560379c9e372c00011bd4a90","eb",42,50,1,45,6702,1098517,"64de66644aa88cd792d1eef0",2,0,0,4,1,0.0666666666666667
"560379c9e372c00011bd4a90","eb",24,25,1,25,5834,1104356,"64de66644aa88cd792d1eef0",2,0,0,4,2,0.04
"560379c9e372c00011bd4a90","eb",46,40,1,50,4637,1108995,"64de66644aa88cd792d1eef0",2,0,0,4,3,0.08
"560379c9e372c00011bd4a90","eb",25,37,1,25,5040,1114036,"64de66644aa88cd792d1eef0",2,0,0,4,4,0
"560379c9e372c00011bd4a90","eb",44,28,1,52,4322,1118361,"64de66644aa88cd792d1eef0",2,0,0,4,5,0.153846153846154
"560379c9e372c00011bd4a90","eb",24,51,1,24,4381,1122749,"64de66644aa88cd792d1eef0",2,0,0,4,6,0
"560379c9e372c00011bd4a90","eb",35,45,1,41,4047,1126799,"64de66644aa88cd792d1eef0",2,0,0,4,7,0.146341463414634
"560379c9e372c00011bd4a90","eb",24,54,1,24,4098,1130900,"64de66644aa88cd792d1eef0",2,0,0,4,8,0
"560379c9e372c00011bd4a90","eb",45,35,1,46,3785,1134689,"64de66644aa88cd792d1eef0",2,0,0,4,9,0.0217391304347826
"560379c9e372c00011bd4a90","eb",26,42,1,28,2910,1137602,"64de66644aa88cd792d1eef0",2,0,0,4,10,0.0714285714285714
"560379c9e372c00011bd4a90","eb",26,39,1,28,2890,1140494,"64de66644aa88cd792d1eef0",2,0,0,4,11,0.0714285714285714
"560379c9e372c00011bd4a90","eb",42,54,1,48,3798,1144296,"64de66644aa88cd792d1eef0",2,0,0,4,12,0.125
"560379c9e372c00011bd4a90","eb",25,39,1,24,4761,1149061,"64de66644aa88cd792d1eef0",2,0,0,4,13,-0.0416666666666667
"560379c9e372c00011bd4a90","eb",37,43,1,37,6437,1155500,"64de66644aa88cd792d1eef0",2,0,0,4,14,0
"560379c9e372c00011bd4a90","eb",33,32,1,33,3174,1158681,"64de66644aa88cd792d1eef0",2,0,0,4,15,0
"560379c9e372c00011bd4a90","pog",137,215,1,132,8000,1208633,"64de66644aa88cd792d1eef0",2,0,0,4,1,5
"560379c9e372c00011bd4a90","pog",143,141,1,137,5435,1214073,"64de66644aa88cd792d1eef0",2,0,0,4,2,6
"560379c9e372c00011bd4a90","pog",133,105,1,124,8000,1222074,"64de66644aa88cd792d1eef0",2,0,0,4,3,9
"560379c9e372c00011bd4a90","pog",146,118,1,141,8000,1230076,"64de66644aa88cd792d1eef0",2,0,0,4,4,5
"560379c9e372c00011bd4a90","pog",128,126,1,124,8000,1238079,"64de66644aa88cd792d1eef0",2,0,0,4,5,4
"560379c9e372c00011bd4a90","pog",140,142,1,137,6235,1244317,"64de66644aa88cd792d1eef0",2,0,0,4,6,3
"560379c9e372c00011bd4a90","pog",175,103,1,171,8000,1252318,"64de66644aa88cd792d1eef0",2,0,0,4,7,4
"560379c9e372c00011bd4a90","pog",165,199,1,158,5774,1258094,"64de66644aa88cd792d1eef0",2,0,0,4,8,7
"560379c9e372c00011bd4a90","pog",190,162,1,185,6805,1264904,"64de66644aa88cd792d1eef0",2,0,0,4,9,5
"560379c9e372c00011bd4a90","pog",202,176,1,192,7114,1272027,"64de66644aa88cd792d1eef0",2,0,0,4,10,10
"560379c9e372c00011bd4a90","pog",191,215,1,182,7286,1279315,"64de66644aa88cd792d1eef0",2,0,0,4,11,9
"560379c9e372c00011bd4a90","pog",161,217,1,155,8000,1287318,"64de66644aa88cd792d1eef0",2,0,0,4,12,6
"560379c9e372c00011bd4a90","pog",145,103,1,138,8000,1295321,"64de66644aa88cd792d1eef0",2,0,0,4,13,7
"560379c9e372c00011bd4a90","pog",177,175,1,169,6430,1301752,"64de66644aa88cd792d1eef0",2,0,0,4,14,8
"560379c9e372c00011bd4a90","pog",174,156,1,171,8000,1309755,"64de66644aa88cd792d1eef0",2,0,0,4,15,3
"560379c9e372c00011bd4a90","pz",106,47,1,54,8000,1352247,"64de66644aa88cd792d1eef0",2,NA,NA,4,1,0.962962962962963
"560379c9e372c00011bd4a90","pz",114,51,1,57,5381,1357630,"64de66644aa88cd792d1eef0",2,NA,NA,4,2,1
"560379c9e372c00011bd4a90","pz",33,41,1,21,8000,1365631,"64de66644aa88cd792d1eef0",2,NA,NA,4,3,0.571428571428571
"560379c9e372c00011bd4a90","pz",87,24,1,49,7806,1373439,"64de66644aa88cd792d1eef0",2,NA,NA,4,4,0.775510204081633
"560379c9e372c00011bd4a90","pz",84,32,1,43,8000,1381443,"64de66644aa88cd792d1eef0",2,NA,NA,4,5,0.953488372093023
"560379c9e372c00011bd4a90","pz",80,38,1,58,8000,1389447,"64de66644aa88cd792d1eef0",2,NA,NA,4,6,0.379310344827586
"560379c9e372c00011bd4a90","pz",66,40,1,31,8000,1397450,"64de66644aa88cd792d1eef0",2,NA,NA,4,7,1.12903225806452
"560379c9e372c00011bd4a90","pz",41,58,1,22,4189,1401641,"64de66644aa88cd792d1eef0",2,NA,NA,4,8,0.863636363636364
"560379c9e372c00011bd4a90","pz",50,54,1,30,4691,1406335,"64de66644aa88cd792d1eef0",2,NA,NA,4,9,0.666666666666667
"560379c9e372c00011bd4a90","pz",78,57,1,49,4124,1410464,"64de66644aa88cd792d1eef0",2,NA,NA,4,10,0.591836734693878
"560379c9e372c00011bd4a90","pz",83,35,1,56,5970,1416436,"64de66644aa88cd792d1eef0",2,NA,NA,4,11,0.482142857142857
"560379c9e372c00011bd4a90","pz",67,41,1,37,2576,1419015,"64de66644aa88cd792d1eef0",2,NA,NA,4,12,0.810810810810811
"560379c9e372c00011bd4a90","pz",67,44,1,44,2223,1421241,"64de66644aa88cd792d1eef0",2,NA,NA,4,13,0.522727272727273
"560379c9e372c00011bd4a90","pz",52,56,1,28,2603,1423846,"64de66644aa88cd792d1eef0",2,NA,NA,4,14,0.857142857142857
"560379c9e372c00011bd4a90","pz",74,51,1,51,5673,1429521,"64de66644aa88cd792d1eef0",2,NA,NA,4,15,0.450980392156863
"560379c9e372c00011bd4a90","zol",0.8,-0.2,1,NA,8000,1467005,"64de66644aa88cd792d1eef0",2,2,-2,4,1,0.8
"560379c9e372c00011bd4a90","zol",2.35,-0.25,1,NA,8000,1475011,"64de66644aa88cd792d1eef0",2,-10,28,4,2,2.35
"560379c9e372c00011bd4a90","zol",1.28,-0.38,1,NA,8000,1483014,"64de66644aa88cd792d1eef0",2,-23,6,4,3,1.28
"560379c9e372c00011bd4a90","zol",1.69,-0.19,1,NA,5800,1488817,"64de66644aa88cd792d1eef0",2,-25,-4,4,4,1.69
"560379c9e372c00011bd4a90","zol",0.64,0.56,1,NA,4861,1493688,"64de66644aa88cd792d1eef0",2,18,-15,4,5,0.64
"560379c9e372c00011bd4a90","zol",1.3,0.4,1,NA,2238,1495931,"64de66644aa88cd792d1eef0",2,-15,22,4,6,1.3
"560379c9e372c00011bd4a90","zol",1.23,0.27,1,NA,3513,1499451,"64de66644aa88cd792d1eef0",2,-25,6,4,7,1.23
"560379c9e372c00011bd4a90","zol",1.62,-0.22,1,NA,3413,1502874,"64de66644aa88cd792d1eef0",2,15,-27,4,8,1.62
"560379c9e372c00011bd4a90","zol",1.34,0.46,1,NA,3066,1505943,"64de66644aa88cd792d1eef0",2,-23,22,4,9,1.34
"560379c9e372c00011bd4a90","zol",1.61,-0.41,1,NA,4621,1510567,"64de66644aa88cd792d1eef0",2,-5,-19,4,10,1.61
"560379c9e372c00011bd4a90","zol",1.65,-0.65,1,NA,2350,1512923,"64de66644aa88cd792d1eef0",2,25,-29,4,11,1.65
"560379c9e372c00011bd4a90","zol",1.07,-0.27,1,NA,4265,1517191,"64de66644aa88cd792d1eef0",2,23,21,4,12,1.07
"560379c9e372c00011bd4a90","zol",0.92,0.28,1,NA,2538,1519732,"64de66644aa88cd792d1eef0",2,26,19,4,13,0.92
"560379c9e372c00011bd4a90","zol",1.14,0.36,1,NA,2248,1521984,"64de66644aa88cd792d1eef0",2,-22,-10,4,14,1.14
"560379c9e372c00011bd4a90","zol",1.59,-0.49,1,NA,3142,1525147,"64de66644aa88cd792d1eef0",2,12,12,4,15,1.59
"560379c9e372c00011bd4a90","br",-15,5,1,296,8000,1544234,"64de66644aa88cd792d1eef0",2,-22,27,4,1,0.0506756756756757
"560379c9e372c00011bd4a90","br",-18,-2,1,238,4196,1548433,"64de66644aa88cd792d1eef0",2,16,-23,4,2,0.0756302521008403
"560379c9e372c00011bd4a90","br",-16,-5,1,214,3407,1551845,"64de66644aa88cd792d1eef0",2,-24,-2,4,3,0.0747663551401869
"560379c9e372c00011bd4a90","br",-11,-17,1,213,4899,1556749,"64de66644aa88cd792d1eef0",2,17,22,4,4,0.0516431924882629
"560379c9e372c00011bd4a90","br",-6,-6,1,284,87,1556838,"64de66644aa88cd792d1eef0",2,-28,-15,4,5,0.0211267605633803
"560379c9e372c00011bd4a90","br",-13,3,1,215,4369,1561208,"64de66644aa88cd792d1eef0",2,19,13,4,6,0.0604651162790698
"560379c9e372c00011bd4a90","br",-11,-3,1,250,3701,1564919,"64de66644aa88cd792d1eef0",2,-12,16,4,7,0.044
"560379c9e372c00011bd4a90","br",-15,14,1,295,2790,1567714,"64de66644aa88cd792d1eef0",2,17,-7,4,8,0.0508474576271186
"560379c9e372c00011bd4a90","br",-19,7,1,247,4266,1571986,"64de66644aa88cd792d1eef0",2,8,-3,4,9,0.0769230769230769
"560379c9e372c00011bd4a90","br",-16,21,1,283,3427,1575420,"64de66644aa88cd792d1eef0",2,-26,21,4,10,0.0565371024734982
"560379c9e372c00011bd4a90","br",-12,-6,1,298,2166,1577590,"64de66644aa88cd792d1eef0",2,7,23,4,11,0.0402684563758389
"560379c9e372c00011bd4a90","br",-21,27,1,213,3819,1581418,"64de66644aa88cd792d1eef0",2,14,28,4,12,0.0985915492957746
"560379c9e372c00011bd4a90","br",-16,28,1,256,4385,1585809,"64de66644aa88cd792d1eef0",2,17,29,4,13,0.0625
"560379c9e372c00011bd4a90","br",-21,-28,1,291,4248,1590061,"64de66644aa88cd792d1eef0",2,-3,-4,4,14,0.0721649484536082
"560379c9e372c00011bd4a90","br",-15,8,1,295,4167,1594230,"64de66644aa88cd792d1eef0",2,-3,15,4,15,0.0508474576271186
"56944c20e0c800000b59c13a","eb",39,28,2,30,8000,246812,"64de65bd32272b68914dd1d5",1,0,0,5,1,0.3
"56944c20e0c800000b59c13a","eb",46,26,2,39,5994,252807,"64de65bd32272b68914dd1d5",1,0,0,5,2,0.17948717948718
"56944c20e0c800000b59c13a","eb",42,53,2,32,5630,258439,"64de65bd32272b68914dd1d5",1,0,0,5,3,0.3125
"56944c20e0c800000b59c13a","eb",42,32,2,32,6671,265111,"64de65bd32272b68914dd1d5",1,0,0,5,4,0.3125
"56944c20e0c800000b59c13a","eb",40,50,2,31,6751,271863,"64de65bd32272b68914dd1d5",1,0,0,5,5,0.290322580645161
"56944c20e0c800000b59c13a","eb",29,25,2,24,6295,278159,"64de65bd32272b68914dd1d5",1,0,0,5,6,0.208333333333333
"56944c20e0c800000b59c13a","eb",62,50,2,50,8000,286161,"64de65bd32272b68914dd1d5",1,0,0,5,7,0.24
"56944c20e0c800000b59c13a","eb",46,44,2,36,4980,291143,"64de65bd32272b68914dd1d5",1,0,0,5,8,0.277777777777778
"56944c20e0c800000b59c13a","eb",39,51,2,30,7871,299014,"64de65bd32272b68914dd1d5",1,0,0,5,9,0.3
"56944c20e0c800000b59c13a","eb",47,33,2,39,6894,305910,"64de65bd32272b68914dd1d5",1,0,0,5,10,0.205128205128205
"56944c20e0c800000b59c13a","eb",32,24,2,24,6519,312430,"64de65bd32272b68914dd1d5",1,0,0,5,11,0.333333333333333
"56944c20e0c800000b59c13a","eb",54,47,2,45,6791,319222,"64de65bd32272b68914dd1d5",1,0,0,5,12,0.2
"56944c20e0c800000b59c13a","eb",45,38,2,37,5407,324630,"64de65bd32272b68914dd1d5",1,0,0,5,13,0.216216216216216
"56944c20e0c800000b59c13a","eb",45,45,2,37,1727,326358,"64de65bd32272b68914dd1d5",1,0,0,5,14,0.216216216216216
"56944c20e0c800000b59c13a","eb",32,48,2,26,7975,334334,"64de65bd32272b68914dd1d5",1,0,0,5,15,0.230769230769231
"56944c20e0c800000b59c13a","br",-14,17,1,246,5977,375185,"64de65bd32272b68914dd1d5",1,16,-29,5,1,0.056910569105691
"56944c20e0c800000b59c13a","br",-15,23,1,202,7527,382712,"64de65bd32272b68914dd1d5",1,0,-24,5,2,0.0742574257425743
"56944c20e0c800000b59c13a","br",-16,11,1,247,5869,388583,"64de65bd32272b68914dd1d5",1,11,-6,5,3,0.0647773279352227
"56944c20e0c800000b59c13a","br",-20,-17,1,271,2750,391335,"64de65bd32272b68914dd1d5",1,17,15,5,4,0.0738007380073801
"56944c20e0c800000b59c13a","br",-23,-26,1,296,1811,393151,"64de65bd32272b68914dd1d5",1,20,24,5,5,0.0777027027027027
"56944c20e0c800000b59c13a","br",-17,-7,1,250,3519,396672,"64de65bd32272b68914dd1d5",1,24,-18,5,6,0.068
"56944c20e0c800000b59c13a","br",-15,0,1,220,5069,401743,"64de65bd32272b68914dd1d5",1,-27,-13,5,7,0.0681818181818182
"56944c20e0c800000b59c13a","br",-13,19,1,242,6446,408190,"64de65bd32272b68914dd1d5",1,13,-26,5,8,0.0537190082644628
"56944c20e0c800000b59c13a","br",-22,-1,1,299,3735,411926,"64de65bd32272b68914dd1d5",1,4,-28,5,9,0.0735785953177258
"56944c20e0c800000b59c13a","br",-13,28,1,286,6679,418606,"64de65bd32272b68914dd1d5",1,-3,-13,5,10,0.0454545454545455
"56944c20e0c800000b59c13a","br",-17,-2,1,286,5883,424496,"64de65bd32272b68914dd1d5",1,7,-12,5,11,0.0594405594405594
"56944c20e0c800000b59c13a","br",-20,-12,1,255,5541,430038,"64de65bd32272b68914dd1d5",1,12,-21,5,12,0.0784313725490196
"56944c20e0c800000b59c13a","br",-15,1,1,289,3871,433910,"64de65bd32272b68914dd1d5",1,24,27,5,13,0.0519031141868512
"56944c20e0c800000b59c13a","br",-20,5,1,232,5431,439343,"64de65bd32272b68914dd1d5",1,-30,13,5,14,0.0862068965517241
"56944c20e0c800000b59c13a","br",-26,-25,1,202,1431,440775,"64de65bd32272b68914dd1d5",1,-29,29,5,15,0.128712871287129
"56944c20e0c800000b59c13a","pz",29,38,2,36,6181,503381,"64de65bd32272b68914dd1d5",1,NA,NA,5,1,0.194444444444444
"56944c20e0c800000b59c13a","pz",23,54,2,28,6839,510221,"64de65bd32272b68914dd1d5",1,NA,NA,5,2,0.178571428571429
"56944c20e0c800000b59c13a","pz",27,39,2,41,5247,515469,"64de65bd32272b68914dd1d5",1,NA,NA,5,3,0.341463414634146
"56944c20e0c800000b59c13a","pz",19,29,2,26,4278,519749,"64de65bd32272b68914dd1d5",1,NA,NA,5,4,0.269230769230769
"56944c20e0c800000b59c13a","pz",21,40,2,27,5087,524837,"64de65bd32272b68914dd1d5",1,NA,NA,5,5,0.222222222222222
"56944c20e0c800000b59c13a","pz",30,54,2,49,8000,532839,"64de65bd32272b68914dd1d5",1,NA,NA,5,6,0.387755102040816
"56944c20e0c800000b59c13a","pz",36,36,2,46,965,533805,"64de65bd32272b68914dd1d5",1,NA,NA,5,7,0.217391304347826
"56944c20e0c800000b59c13a","pz",32,55,2,41,5392,539199,"64de65bd32272b68914dd1d5",1,NA,NA,5,8,0.219512195121951
"56944c20e0c800000b59c13a","pz",32,59,2,42,5006,544206,"64de65bd32272b68914dd1d5",1,NA,NA,5,9,0.238095238095238
"56944c20e0c800000b59c13a","pz",24,60,2,28,4830,549038,"64de65bd32272b68914dd1d5",1,NA,NA,5,10,0.142857142857143
"56944c20e0c800000b59c13a","pz",29,22,2,44,2991,552030,"64de65bd32272b68914dd1d5",1,NA,NA,5,11,0.340909090909091
"56944c20e0c800000b59c13a","pz",28,49,2,38,5558,557590,"64de65bd32272b68914dd1d5",1,NA,NA,5,12,0.263157894736842
"56944c20e0c800000b59c13a","pz",38,28,2,50,3719,561310,"64de65bd32272b68914dd1d5",1,NA,NA,5,13,0.24
"56944c20e0c800000b59c13a","pz",30,29,2,41,2888,564199,"64de65bd32272b68914dd1d5",1,NA,NA,5,14,0.268292682926829
"56944c20e0c800000b59c13a","pz",42,51,2,57,3934,568134,"64de65bd32272b68914dd1d5",1,NA,NA,5,15,0.263157894736842
"56944c20e0c800000b59c13a","pog",346,280,2,356,8000,623960,"64de65bd32272b68914dd1d5",1,0,0,5,1,10
"56944c20e0c800000b59c13a","pog",363,327,2,369,8000,631962,"64de65bd32272b68914dd1d5",1,0,0,5,2,6
"56944c20e0c800000b59c13a","pog",305,341,2,317,4659,636622,"64de65bd32272b68914dd1d5",1,0,0,5,3,12
"56944c20e0c800000b59c13a","pog",363,391,2,365,3854,640477,"64de65bd32272b68914dd1d5",1,0,0,5,4,2
"56944c20e0c800000b59c13a","pog",372,320,2,374,5639,646117,"64de65bd32272b68914dd1d5",1,0,0,5,5,2
"56944c20e0c800000b59c13a","pog",303,355,2,309,5615,651733,"64de65bd32272b68914dd1d5",1,0,0,5,6,6
"56944c20e0c800000b59c13a","pog",299,315,2,303,2559,654293,"64de65bd32272b68914dd1d5",1,0,0,5,7,4
"56944c20e0c800000b59c13a","pog",378,398,2,379,3841,658136,"64de65bd32272b68914dd1d5",1,0,0,5,8,1
"56944c20e0c800000b59c13a","pog",368,282,2,368,5589,663726,"64de65bd32272b68914dd1d5",1,0,0,5,9,0
"56944c20e0c800000b59c13a","pog",346,322,2,342,3791,667517,"64de65bd32272b68914dd1d5",1,0,0,5,10,-4
"56944c20e0c800000b59c13a","pog",319,303,2,320,3519,671037,"64de65bd32272b68914dd1d5",1,0,0,5,11,1
"56944c20e0c800000b59c13a","pog",371,305,2,368,5719,676757,"64de65bd32272b68914dd1d5",1,0,0,5,12,-3
"56944c20e0c800000b59c13a","pog",347,319,2,348,4751,681509,"64de65bd32272b68914dd1d5",1,0,0,5,13,1
"56944c20e0c800000b59c13a","pog",304,306,2,314,4127,685638,"64de65bd32272b68914dd1d5",1,0,0,5,14,10
"56944c20e0c800000b59c13a","pog",346,364,2,348,5015,690653,"64de65bd32272b68914dd1d5",1,0,0,5,15,2
"56944c20e0c800000b59c13a","zol",-1.38,0.38,2,NA,5535,742141,"64de65bd32272b68914dd1d5",1,29,14,5,1,1.38
"56944c20e0c800000b59c13a","zol",-1.57,0.47,2,NA,6567,748709,"64de65bd32272b68914dd1d5",1,-10,6,5,2,1.57
"56944c20e0c800000b59c13a","zol",-1.82,0.62,2,NA,5381,754092,"64de65bd32272b68914dd1d5",1,-21,-17,5,3,1.82
"56944c20e0c800000b59c13a","zol",-1.13,-0.57,2,NA,5560,759653,"64de65bd32272b68914dd1d5",1,22,20,5,4,1.13
"56944c20e0c800000b59c13a","zol",-1.46,0.46,2,NA,8000,767654,"64de65bd32272b68914dd1d5",1,-5,-17,5,5,1.46
"56944c20e0c800000b59c13a","zol",0.24,-0.24,2,NA,212,767868,"64de65bd32272b68914dd1d5",1,-7,26,5,6,-0.24
"56944c20e0c800000b59c13a","zol",-1.31,-0.69,2,NA,6671,774541,"64de65bd32272b68914dd1d5",1,18,16,5,7,1.31
"56944c20e0c800000b59c13a","zol",-1.44,0.34,2,NA,4430,778973,"64de65bd32272b68914dd1d5",1,-18,-20,5,8,1.44
"56944c20e0c800000b59c13a","zol",-1.99,-0.21,2,NA,3999,782973,"64de65bd32272b68914dd1d5",1,16,2,5,9,1.99
"56944c20e0c800000b59c13a","zol",-1.82,0.22,2,NA,6030,789005,"64de65bd32272b68914dd1d5",1,-30,17,5,10,1.82
"56944c20e0c800000b59c13a","zol",-2.29,-0.61,2,NA,5134,794141,"64de65bd32272b68914dd1d5",1,-11,-23,5,11,2.29
"56944c20e0c800000b59c13a","zol",-2.73,0.53,2,NA,5462,799604,"64de65bd32272b68914dd1d5",1,-19,29,5,12,2.73
"56944c20e0c800000b59c13a","zol",-1.68,-0.12,2,NA,4391,803997,"64de65bd32272b68914dd1d5",1,-3,-26,5,13,1.68
"56944c20e0c800000b59c13a","zol",-1.52,-0.68,2,NA,4231,808230,"64de65bd32272b68914dd1d5",1,17,-2,5,14,1.52
"56944c20e0c800000b59c13a","zol",-1.72,-0.18,2,NA,3541,811773,"64de65bd32272b68914dd1d5",1,27,3,5,15,1.72
"56944c20e0c800000b59c13a","pz",39,53,1,23,4756,846332,"64de65bd32272b68914dd1d5",2,NA,NA,5,1,0.695652173913043
"56944c20e0c800000b59c13a","pz",41,26,1,28,5223,851556,"64de65bd32272b68914dd1d5",2,NA,NA,5,2,0.464285714285714
"56944c20e0c800000b59c13a","pz",43,31,1,29,5799,857356,"64de65bd32272b68914dd1d5",2,NA,NA,5,3,0.482758620689655
"56944c20e0c800000b59c13a","pz",46,49,1,35,2096,859453,"64de65bd32272b68914dd1d5",2,NA,NA,5,4,0.314285714285714
"56944c20e0c800000b59c13a","pz",73,26,1,57,6798,866252,"64de65bd32272b68914dd1d5",2,NA,NA,5,5,0.280701754385965
"56944c20e0c800000b59c13a","pz",60,22,1,44,5671,871924,"64de65bd32272b68914dd1d5",2,NA,NA,5,6,0.363636363636364
"56944c20e0c800000b59c13a","pz",68,27,1,53,5287,877212,"64de65bd32272b68914dd1d5",2,NA,NA,5,7,0.283018867924528
"56944c20e0c800000b59c13a","pz",64,28,1,56,5575,882789,"64de65bd32272b68914dd1d5",2,NA,NA,5,8,0.142857142857143
"56944c20e0c800000b59c13a","pz",57,37,1,45,2862,885652,"64de65bd32272b68914dd1d5",2,NA,NA,5,9,0.266666666666667
"56944c20e0c800000b59c13a","pz",25,39,1,20,4911,890564,"64de65bd32272b68914dd1d5",2,NA,NA,5,10,0.25
"56944c20e0c800000b59c13a","pz",67,36,1,58,7296,897862,"64de65bd32272b68914dd1d5",2,NA,NA,5,11,0.155172413793103
"56944c20e0c800000b59c13a","pz",25,45,1,20,6942,904805,"64de65bd32272b68914dd1d5",2,NA,NA,5,12,0.25
"56944c20e0c800000b59c13a","pz",65,31,1,57,7398,912205,"64de65bd32272b68914dd1d5",2,NA,NA,5,13,0.140350877192982
"56944c20e0c800000b59c13a","pz",50,56,1,49,2431,914636,"64de65bd32272b68914dd1d5",2,NA,NA,5,14,0.0204081632653061
"56944c20e0c800000b59c13a","pz",34,34,1,29,3912,918549,"64de65bd32272b68914dd1d5",2,NA,NA,5,15,0.172413793103448
"56944c20e0c800000b59c13a","eb",44,31,1,54,7022,949941,"64de65bd32272b68914dd1d5",2,0,0,5,1,0.185185185185185
"56944c20e0c800000b59c13a","eb",23,32,1,26,3727,953669,"64de65bd32272b68914dd1d5",2,0,0,5,2,0.115384615384615
"56944c20e0c800000b59c13a","eb",24,45,1,30,7135,960804,"64de65bd32272b68914dd1d5",2,0,0,5,3,0.2
"56944c20e0c800000b59c13a","eb",24,24,1,29,1551,962356,"64de65bd32272b68914dd1d5",2,0,0,5,4,0.172413793103448
"56944c20e0c800000b59c13a","eb",25,54,1,30,6207,968564,"64de65bd32272b68914dd1d5",2,0,0,5,5,0.166666666666667
"56944c20e0c800000b59c13a","eb",25,43,1,26,5851,974416,"64de65bd32272b68914dd1d5",2,0,0,5,6,0.0384615384615385
"56944c20e0c800000b59c13a","eb",28,24,1,48,7067,981484,"64de65bd32272b68914dd1d5",2,0,0,5,7,0.416666666666667
"56944c20e0c800000b59c13a","eb",27,27,1,35,5087,986573,"64de65bd32272b68914dd1d5",2,0,0,5,8,0.228571428571429
"56944c20e0c800000b59c13a","eb",30,46,1,44,7246,993821,"64de65bd32272b68914dd1d5",2,0,0,5,9,0.318181818181818
"56944c20e0c800000b59c13a","eb",26,29,1,29,3479,997301,"64de65bd32272b68914dd1d5",2,0,0,5,10,0.103448275862069
"56944c20e0c800000b59c13a","eb",35,54,1,46,6201,1003503,"64de65bd32272b68914dd1d5",2,0,0,5,11,0.239130434782609
"56944c20e0c800000b59c13a","eb",36,35,1,48,1435,1004940,"64de65bd32272b68914dd1d5",2,0,0,5,12,0.25
"56944c20e0c800000b59c13a","eb",31,54,1,40,5048,1009989,"64de65bd32272b68914dd1d5",2,0,0,5,13,0.225
"56944c20e0c800000b59c13a","eb",31,33,1,35,2109,1012100,"64de65bd32272b68914dd1d5",2,0,0,5,14,0.114285714285714
"56944c20e0c800000b59c13a","eb",41,30,1,51,3303,1015404,"64de65bd32272b68914dd1d5",2,0,0,5,15,0.196078431372549
"56944c20e0c800000b59c13a","zol",1.74,-0.34,1,NA,3271,1043444,"64de65bd32272b68914dd1d5",2,-19,-18,5,1,1.74
"56944c20e0c800000b59c13a","zol",2.32,-0.12,1,NA,4070,1047516,"64de65bd32272b68914dd1d5",2,27,22,5,2,2.32
"56944c20e0c800000b59c13a","zol",2.7,-0.3,1,NA,5071,1052588,"64de65bd32272b68914dd1d5",2,12,23,5,3,2.7
"56944c20e0c800000b59c13a","zol",1.62,0.28,1,NA,7254,1059852,"64de65bd32272b68914dd1d5",2,-15,-4,5,4,1.62
"56944c20e0c800000b59c13a","zol",1.72,0.58,1,NA,3184,1063037,"64de65bd32272b68914dd1d5",2,-1,20,5,5,1.72
"56944c20e0c800000b59c13a","zol",2.22,0.28,1,NA,3605,1066644,"64de65bd32272b68914dd1d5",2,-30,-17,5,6,2.22
"56944c20e0c800000b59c13a","zol",1.6,0.1,1,NA,7142,1073788,"64de65bd32272b68914dd1d5",2,23,-18,5,7,1.6
"56944c20e0c800000b59c13a","zol",2.22,-0.42,1,NA,5007,1078795,"64de65bd32272b68914dd1d5",2,-15,-4,5,8,2.22
"56944c20e0c800000b59c13a","zol",1.73,-0.53,1,NA,2230,1081027,"64de65bd32272b68914dd1d5",2,-16,2,5,9,1.73
"56944c20e0c800000b59c13a","zol",1.19,0.71,1,NA,3079,1084107,"64de65bd32272b68914dd1d5",2,-22,17,5,10,1.19
"56944c20e0c800000b59c13a","zol",1.42,0.68,1,NA,3398,1087507,"64de65bd32272b68914dd1d5",2,-1,-14,5,11,1.42
"56944c20e0c800000b59c13a","zol",2.28,0.22,1,NA,3718,1091227,"64de65bd32272b68914dd1d5",2,-9,-18,5,12,2.28
"56944c20e0c800000b59c13a","zol",1.74,-0.24,1,NA,3327,1094555,"64de65bd32272b68914dd1d5",2,17,23,5,13,1.74
"56944c20e0c800000b59c13a","zol",1.99,-0.29,1,NA,6046,1100613,"64de65bd32272b68914dd1d5",2,10,26,5,14,1.99
"56944c20e0c800000b59c13a","zol",1.54,0.06,1,NA,2506,1103123,"64de65bd32272b68914dd1d5",2,-29,-19,5,15,1.54
"56944c20e0c800000b59c13a","pog",169,167,1,163,4854,1123219,"64de65bd32272b68914dd1d5",2,0,0,5,1,6
"56944c20e0c800000b59c13a","pog",140,214,1,139,4937,1128157,"64de65bd32272b68914dd1d5",2,0,0,5,2,1
"56944c20e0c800000b59c13a","pog",166,120,1,161,4221,1132379,"64de65bd32272b68914dd1d5",2,0,0,5,3,5
"56944c20e0c800000b59c13a","pog",197,187,1,190,3719,1136099,"64de65bd32272b68914dd1d5",2,0,0,5,4,7
"56944c20e0c800000b59c13a","pog",129,197,1,133,7000,1143100,"64de65bd32272b68914dd1d5",2,0,0,5,5,-4
"56944c20e0c800000b59c13a","pog",138,176,1,133,4094,1147195,"64de65bd32272b68914dd1d5",2,0,0,5,6,5
"56944c20e0c800000b59c13a","pog",152,136,1,148,5696,1152892,"64de65bd32272b68914dd1d5",2,0,0,5,7,4
"56944c20e0c800000b59c13a","pog",153,159,1,144,2383,1155276,"64de65bd32272b68914dd1d5",2,0,0,5,8,9
"56944c20e0c800000b59c13a","pog",144,154,1,138,2903,1158180,"64de65bd32272b68914dd1d5",2,0,0,5,9,6
"56944c20e0c800000b59c13a","pog",176,122,1,170,5423,1163603,"64de65bd32272b68914dd1d5",2,0,0,5,10,6
"56944c20e0c800000b59c13a","pog",123,181,1,122,4136,1167741,"64de65bd32272b68914dd1d5",2,0,0,5,11,1
"56944c20e0c800000b59c13a","pog",188,168,1,185,4549,1172292,"64de65bd32272b68914dd1d5",2,0,0,5,12,3
"56944c20e0c800000b59c13a","pog",206,150,1,197,4687,1176980,"64de65bd32272b68914dd1d5",2,0,0,5,13,9
"56944c20e0c800000b59c13a","pog",187,135,1,182,5255,1182236,"64de65bd32272b68914dd1d5",2,0,0,5,14,5
"56944c20e0c800000b59c13a","pog",195,141,1,194,5591,1187827,"64de65bd32272b68914dd1d5",2,0,0,5,15,1
"56944c20e0c800000b59c13a","br",18,-25,2,266,8000,1204933,"64de65bd32272b68914dd1d5",2,26,6,5,1,0.0676691729323308
"56944c20e0c800000b59c13a","br",10,-16,2,273,4158,1209092,"64de65bd32272b68914dd1d5",2,22,4,5,2,0.0366300366300366
"56944c20e0c800000b59c13a","br",13,-27,2,207,4829,1213923,"64de65bd32272b68914dd1d5",2,19,-8,5,3,0.0628019323671498
"56944c20e0c800000b59c13a","br",17,11,2,217,2791,1216715,"64de65bd32272b68914dd1d5",2,23,-25,5,4,0.0783410138248848
"56944c20e0c800000b59c13a","br",9,-5,2,219,2343,1219059,"64de65bd32272b68914dd1d5",2,4,-8,5,5,0.0410958904109589
"56944c20e0c800000b59c13a","br",7,-12,2,294,3471,1222531,"64de65bd32272b68914dd1d5",2,-10,-15,5,6,0.0238095238095238
"56944c20e0c800000b59c13a","br",20,19,2,206,1454,1223986,"64de65bd32272b68914dd1d5",2,23,-4,5,7,0.0970873786407767
"56944c20e0c800000b59c13a","br",22,27,2,236,2135,1226123,"64de65bd32272b68914dd1d5",2,17,-13,5,8,0.0932203389830508
"56944c20e0c800000b59c13a","br",17,10,2,227,1911,1228034,"64de65bd32272b68914dd1d5",2,-16,-23,5,9,0.0748898678414097
"56944c20e0c800000b59c13a","br",25,25,2,245,1623,1229659,"64de65bd32272b68914dd1d5",2,8,27,5,10,0.102040816326531
"56944c20e0c800000b59c13a","br",20,-3,2,202,4748,1234411,"64de65bd32272b68914dd1d5",2,-20,-14,5,11,0.099009900990099
"56944c20e0c800000b59c13a","br",18,18,2,207,1913,1236325,"64de65bd32272b68914dd1d5",2,-3,-9,5,12,0.0869565217391304
"56944c20e0c800000b59c13a","br",27,30,2,240,1860,1238186,"64de65bd32272b68914dd1d5",2,-6,9,5,13,0.1125
"56944c20e0c800000b59c13a","br",15,5,2,280,3576,1241764,"64de65bd32272b68914dd1d5",2,-5,16,5,14,0.0535714285714286
"56944c20e0c800000b59c13a","br",21,-16,2,214,5382,1247146,"64de65bd32272b68914dd1d5",2,14,-28,5,15,0.0981308411214953
"5765dffd7805730001ecfcd0","pz",24,43,2,30,6779,418397,"64e50b4d46975887ae7ca174",1,NA,NA,6,1,0.2
"5765dffd7805730001ecfcd0","pz",41,53,2,49,5051,423450,"64e50b4d46975887ae7ca174",1,NA,NA,6,2,0.163265306122449
"5765dffd7805730001ecfcd0","pz",43,25,2,49,7355,430807,"64e50b4d46975887ae7ca174",1,NA,NA,6,3,0.122448979591837
"5765dffd7805730001ecfcd0","pz",25,25,2,32,2749,433558,"64e50b4d46975887ae7ca174",1,NA,NA,6,4,0.21875
"5765dffd7805730001ecfcd0","pz",33,34,2,37,3860,437420,"64e50b4d46975887ae7ca174",1,NA,NA,6,5,0.108108108108108
"5765dffd7805730001ecfcd0","pz",21,21,2,28,2142,439563,"64e50b4d46975887ae7ca174",1,NA,NA,6,6,0.25
"5765dffd7805730001ecfcd0","pz",43,38,2,57,4116,443681,"64e50b4d46975887ae7ca174",1,NA,NA,6,7,0.245614035087719
"5765dffd7805730001ecfcd0","pz",49,24,2,59,7659,451341,"64e50b4d46975887ae7ca174",1,NA,NA,6,8,0.169491525423729
"5765dffd7805730001ecfcd0","pz",34,35,2,41,1893,453237,"64e50b4d46975887ae7ca174",1,NA,NA,6,9,0.170731707317073
"5765dffd7805730001ecfcd0","pz",43,43,2,52,1334,454571,"64e50b4d46975887ae7ca174",1,NA,NA,6,10,0.173076923076923
"5765dffd7805730001ecfcd0","pz",27,39,2,31,3397,457970,"64e50b4d46975887ae7ca174",1,NA,NA,6,11,0.129032258064516
"5765dffd7805730001ecfcd0","pz",33,57,2,38,7100,465078,"64e50b4d46975887ae7ca174",1,NA,NA,6,12,0.131578947368421
"5765dffd7805730001ecfcd0","pz",26,40,2,30,6491,471571,"64e50b4d46975887ae7ca174",1,NA,NA,6,13,0.133333333333333
"5765dffd7805730001ecfcd0","pz",27,42,2,27,4564,476137,"64e50b4d46975887ae7ca174",1,NA,NA,6,14,0
"5765dffd7805730001ecfcd0","pz",35,50,2,42,5132,481271,"64e50b4d46975887ae7ca174",1,NA,NA,6,15,0.166666666666667
"5765dffd7805730001ecfcd0","eb",43,36,1,48,8000,690786,"64e50b4d46975887ae7ca174",1,0,0,6,1,0.104166666666667
"5765dffd7805730001ecfcd0","eb",26,25,1,25,2216,693004,"64e50b4d46975887ae7ca174",1,0,0,6,2,-0.04
"5765dffd7805730001ecfcd0","eb",47,40,1,50,4275,697282,"64e50b4d46975887ae7ca174",1,0,0,6,3,0.06
"5765dffd7805730001ecfcd0","eb",27,27,1,28,2429,699713,"64e50b4d46975887ae7ca174",1,0,0,6,4,0.0357142857142857
"5765dffd7805730001ecfcd0","eb",34,52,1,33,5516,705231,"64e50b4d46975887ae7ca174",1,0,0,6,5,-0.0303030303030303
"5765dffd7805730001ecfcd0","eb",33,42,1,34,3132,708365,"64e50b4d46975887ae7ca174",1,0,0,6,6,0.0294117647058824
"5765dffd7805730001ecfcd0","eb",47,39,1,48,3860,712227,"64e50b4d46975887ae7ca174",1,0,0,6,7,0.0208333333333333
"5765dffd7805730001ecfcd0","eb",31,38,1,30,4062,716290,"64e50b4d46975887ae7ca174",1,0,0,6,8,-0.0333333333333333
"5765dffd7805730001ecfcd0","eb",36,50,1,32,4275,720567,"64e50b4d46975887ae7ca174",1,0,0,6,9,-0.125
"5765dffd7805730001ecfcd0","eb",39,52,1,39,5092,725661,"64e50b4d46975887ae7ca174",1,0,0,6,10,0
"5765dffd7805730001ecfcd0","eb",30,39,1,32,3133,728796,"64e50b4d46975887ae7ca174",1,0,0,6,11,0.0625
"5765dffd7805730001ecfcd0","eb",44,29,1,45,6563,735361,"64e50b4d46975887ae7ca174",1,0,0,6,12,0.0222222222222222
"5765dffd7805730001ecfcd0","eb",39,51,1,41,7635,742998,"64e50b4d46975887ae7ca174",1,0,0,6,13,0.048780487804878
"5765dffd7805730001ecfcd0","eb",48,28,1,50,7410,750409,"64e50b4d46975887ae7ca174",1,0,0,6,14,0.04
"5765dffd7805730001ecfcd0","eb",50,28,1,52,8000,758411,"64e50b4d46975887ae7ca174",1,0,0,6,15,0.0384615384615385
"5765dffd7805730001ecfcd0","pog",193,165,1,179,6995,791599,"64e50b4d46975887ae7ca174",1,0,0,6,1,14
"5765dffd7805730001ecfcd0","pog",174,210,1,155,6084,797684,"64e50b4d46975887ae7ca174",1,0,0,6,2,19
"5765dffd7805730001ecfcd0","pog",190,130,1,173,7043,804728,"64e50b4d46975887ae7ca174",1,0,0,6,3,17
"5765dffd7805730001ecfcd0","pog",137,135,1,124,3269,807999,"64e50b4d46975887ae7ca174",1,0,0,6,4,13
"5765dffd7805730001ecfcd0","pog",195,187,1,180,3661,811661,"64e50b4d46975887ae7ca174",1,0,0,6,5,15
"5765dffd7805730001ecfcd0","pog",152,128,1,138,4212,815875,"64e50b4d46975887ae7ca174",1,0,0,6,6,14
"5765dffd7805730001ecfcd0","pog",149,145,1,132,2598,818474,"64e50b4d46975887ae7ca174",1,0,0,6,7,17
"5765dffd7805730001ecfcd0","pog",170,176,1,149,2630,821105,"64e50b4d46975887ae7ca174",1,0,0,6,8,21
"5765dffd7805730001ecfcd0","pog",199,219,1,172,4125,825231,"64e50b4d46975887ae7ca174",1,0,0,6,9,27
"5765dffd7805730001ecfcd0","pog",190,152,1,172,5691,830924,"64e50b4d46975887ae7ca174",1,0,0,6,10,18
"5765dffd7805730001ecfcd0","pog",195,155,1,177,5372,836298,"64e50b4d46975887ae7ca174",1,0,0,6,11,18
"5765dffd7805730001ecfcd0","pog",161,103,1,147,5613,841911,"64e50b4d46975887ae7ca174",1,0,0,6,12,14
"5765dffd7805730001ecfcd0","pog",172,216,1,159,3853,845765,"64e50b4d46975887ae7ca174",1,0,0,6,13,13
"5765dffd7805730001ecfcd0","pog",201,173,1,184,4045,849811,"64e50b4d46975887ae7ca174",1,0,0,6,14,17
"5765dffd7805730001ecfcd0","pog",163,161,1,139,1471,851283,"64e50b4d46975887ae7ca174",1,0,0,6,15,24
"5765dffd7805730001ecfcd0","br",-17,-15,1,202,3868,897398,"64e50b4d46975887ae7ca174",1,20,-22,6,1,0.0841584158415842
"5765dffd7805730001ecfcd0","br",-16,28,1,255,6172,903571,"64e50b4d46975887ae7ca174",1,-21,6,6,2,0.0627450980392157
"5765dffd7805730001ecfcd0","br",-12,0,1,225,3948,907521,"64e50b4d46975887ae7ca174",1,14,-12,6,3,0.0533333333333333
"5765dffd7805730001ecfcd0","br",-13,0,1,298,5027,912550,"64e50b4d46975887ae7ca174",1,-17,-24,6,4,0.0436241610738255
"5765dffd7805730001ecfcd0","br",-14,15,1,230,8000,920552,"64e50b4d46975887ae7ca174",1,22,-11,6,5,0.0608695652173913
"5765dffd7805730001ecfcd0","br",-17,-24,1,252,2832,923385,"64e50b4d46975887ae7ca174",1,-20,-8,6,6,0.0674603174603175
"5765dffd7805730001ecfcd0","br",-15,6,1,246,3590,926977,"64e50b4d46975887ae7ca174",1,29,5,6,7,0.0609756097560976
"5765dffd7805730001ecfcd0","br",-6,15,1,272,6754,933732,"64e50b4d46975887ae7ca174",1,-29,-8,6,8,0.0220588235294118
"5765dffd7805730001ecfcd0","br",-5,28,1,264,3030,936763,"64e50b4d46975887ae7ca174",1,18,18,6,9,0.0189393939393939
"5765dffd7805730001ecfcd0","br",-13,-14,1,251,1628,938394,"64e50b4d46975887ae7ca174",1,11,-30,6,10,0.051792828685259
"5765dffd7805730001ecfcd0","br",25,25,1,237,8000,946396,"64e50b4d46975887ae7ca174",1,11,-14,6,11,-0.105485232067511
"5765dffd7805730001ecfcd0","br",-11,20,1,286,3839,950237,"64e50b4d46975887ae7ca174",1,19,-8,6,12,0.0384615384615385
"5765dffd7805730001ecfcd0","br",-14,4,1,245,3092,953331,"64e50b4d46975887ae7ca174",1,-21,-12,6,13,0.0571428571428571
"5765dffd7805730001ecfcd0","br",-13,4,1,203,5117,958449,"64e50b4d46975887ae7ca174",1,15,10,6,14,0.0640394088669951
"5765dffd7805730001ecfcd0","br",-14,-30,1,249,3422,961872,"64e50b4d46975887ae7ca174",1,-15,-10,6,15,0.0562248995983936
"5765dffd7805730001ecfcd0","zol",0.4,-0.7,1,NA,5147,999189,"64e50b4d46975887ae7ca174",1,29,-8,6,1,0.4
"5765dffd7805730001ecfcd0","zol",-0.03,-0.37,1,NA,4868,1004059,"64e50b4d46975887ae7ca174",1,13,2,6,2,-0.03
"5765dffd7805730001ecfcd0","zol",0.9,0,1,NA,7514,1011575,"64e50b4d46975887ae7ca174",1,-10,-15,6,3,0.9
"5765dffd7805730001ecfcd0","zol",0.8,-0.2,1,NA,5148,1016725,"64e50b4d46975887ae7ca174",1,19,-14,6,4,0.8
"5765dffd7805730001ecfcd0","zol",1.28,0.22,1,NA,5651,1022378,"64e50b4d46975887ae7ca174",1,-19,-9,6,5,1.28
"5765dffd7805730001ecfcd0","zol",0.85,0.45,1,NA,4428,1026808,"64e50b4d46975887ae7ca174",1,-10,7,6,6,0.85
"5765dffd7805730001ecfcd0","zol",0.4,0.7,1,NA,3428,1030239,"64e50b4d46975887ae7ca174",1,-29,23,6,7,0.4
"5765dffd7805730001ecfcd0","zol",0.45,0.45,1,NA,5555,1035796,"64e50b4d46975887ae7ca174",1,6,-12,6,8,0.45
"5765dffd7805730001ecfcd0","zol",1.13,0.37,1,NA,6235,1042033,"64e50b4d46975887ae7ca174",1,-28,-22,6,9,1.13
"5765dffd7805730001ecfcd0","zol",0.95,-0.15,1,NA,3900,1045935,"64e50b4d46975887ae7ca174",1,5,-10,6,10,0.95
"5765dffd7805730001ecfcd0","zol",1.68,-0.18,1,NA,3805,1049742,"64e50b4d46975887ae7ca174",1,-19,-27,6,11,1.68
"5765dffd7805730001ecfcd0","zol",0.32,0.68,1,NA,4442,1054187,"64e50b4d46975887ae7ca174",1,19,10,6,12,0.32
"5765dffd7805730001ecfcd0","zol",0.97,-0.37,1,NA,5852,1060041,"64e50b4d46975887ae7ca174",1,30,21,6,13,0.97
"5765dffd7805730001ecfcd0","zol",1.45,-0.35,1,NA,8000,1068044,"64e50b4d46975887ae7ca174",1,-17,2,6,14,1.45
"5765dffd7805730001ecfcd0","zol",0.93,-0.73,1,NA,8000,1076047,"64e50b4d46975887ae7ca174",1,27,-19,6,15,0.93
"5765dffd7805730001ecfcd0","pz",54,23,1,44,5860,2353974,"64e50b4d46975887ae7ca174",2,NA,NA,6,1,0.227272727272727
"5765dffd7805730001ecfcd0","pz",40,30,1,33,3812,2357788,"64e50b4d46975887ae7ca174",2,NA,NA,6,2,0.212121212121212
"5765dffd7805730001ecfcd0","pz",57,27,1,45,3365,2361155,"64e50b4d46975887ae7ca174",2,NA,NA,6,3,0.266666666666667
"5765dffd7805730001ecfcd0","pz",39,38,1,30,1774,2362930,"64e50b4d46975887ae7ca174",2,NA,NA,6,4,0.3
"5765dffd7805730001ecfcd0","pz",33,58,1,24,3701,2366632,"64e50b4d46975887ae7ca174",2,NA,NA,6,5,0.375
"5765dffd7805730001ecfcd0","pz",45,20,1,36,4293,2370926,"64e50b4d46975887ae7ca174",2,NA,NA,6,6,0.25
"5765dffd7805730001ecfcd0","pz",67,53,1,55,2813,2373741,"64e50b4d46975887ae7ca174",2,NA,NA,6,7,0.218181818181818
"5765dffd7805730001ecfcd0","pz",47,39,1,43,2684,2376427,"64e50b4d46975887ae7ca174",2,NA,NA,6,8,0.0930232558139535
"5765dffd7805730001ecfcd0","pz",33,21,1,27,2598,2379027,"64e50b4d46975887ae7ca174",2,NA,NA,6,9,0.222222222222222
"5765dffd7805730001ecfcd0","pz",68,44,1,54,3069,2382097,"64e50b4d46975887ae7ca174",2,NA,NA,6,10,0.259259259259259
"5765dffd7805730001ecfcd0","pz",72,20,1,58,8000,2390099,"64e50b4d46975887ae7ca174",2,NA,NA,6,11,0.241379310344828
"5765dffd7805730001ecfcd0","pz",40,35,1,30,2872,2392972,"64e50b4d46975887ae7ca174",2,NA,NA,6,12,0.333333333333333
"5765dffd7805730001ecfcd0","pz",57,26,1,45,5019,2397993,"64e50b4d46975887ae7ca174",2,NA,NA,6,13,0.266666666666667
"5765dffd7805730001ecfcd0","pz",71,41,1,56,3757,2401751,"64e50b4d46975887ae7ca174",2,NA,NA,6,14,0.267857142857143
"5765dffd7805730001ecfcd0","pz",30,29,1,20,3037,2404790,"64e50b4d46975887ae7ca174",2,NA,NA,6,15,0.5
"5765dffd7805730001ecfcd0","eb",41,38,2,33,3869,2428787,"64e50b4d46975887ae7ca174",2,0,0,6,1,0.242424242424242
"5765dffd7805730001ecfcd0","eb",31,51,2,25,4277,2433065,"64e50b4d46975887ae7ca174",2,0,0,6,2,0.24
"5765dffd7805730001ecfcd0","eb",57,28,2,50,4636,2437703,"64e50b4d46975887ae7ca174",2,0,0,6,3,0.14
"5765dffd7805730001ecfcd0","eb",52,24,2,45,3948,2441653,"64e50b4d46975887ae7ca174",2,0,0,6,4,0.155555555555556
"5765dffd7805730001ecfcd0","eb",36,38,2,29,2638,2444292,"64e50b4d46975887ae7ca174",2,0,0,6,5,0.241379310344828
"5765dffd7805730001ecfcd0","eb",52,26,2,44,3084,2447378,"64e50b4d46975887ae7ca174",2,0,0,6,6,0.181818181818182
"5765dffd7805730001ecfcd0","eb",39,25,2,30,3052,2450433,"64e50b4d46975887ae7ca174",2,0,0,6,7,0.3
"5765dffd7805730001ecfcd0","eb",35,39,2,28,2094,2452528,"64e50b4d46975887ae7ca174",2,0,0,6,8,0.25
"5765dffd7805730001ecfcd0","eb",28,25,2,25,1957,2454487,"64e50b4d46975887ae7ca174",2,0,0,6,9,0.12
"5765dffd7805730001ecfcd0","eb",39,32,2,33,1957,2456446,"64e50b4d46975887ae7ca174",2,0,0,6,10,0.181818181818182
"5765dffd7805730001ecfcd0","eb",51,29,2,43,6443,2462891,"64e50b4d46975887ae7ca174",2,0,0,6,11,0.186046511627907
"5765dffd7805730001ecfcd0","eb",55,32,2,48,6355,2469248,"64e50b4d46975887ae7ca174",2,0,0,6,12,0.145833333333333
"5765dffd7805730001ecfcd0","eb",37,32,2,31,2294,2471543,"64e50b4d46975887ae7ca174",2,0,0,6,13,0.193548387096774
"5765dffd7805730001ecfcd0","eb",51,39,2,43,2717,2474262,"64e50b4d46975887ae7ca174",2,0,0,6,14,0.186046511627907
"5765dffd7805730001ecfcd0","eb",57,28,2,45,4572,2478836,"64e50b4d46975887ae7ca174",2,0,0,6,15,0.266666666666667
"5765dffd7805730001ecfcd0","br",16,12,2,243,2820,2489998,"64e50b4d46975887ae7ca174",2,5,-17,6,1,0.065843621399177
"5765dffd7805730001ecfcd0","br",17,-14,2,224,2653,2492653,"64e50b4d46975887ae7ca174",2,27,26,6,2,0.0758928571428571
"5765dffd7805730001ecfcd0","br",22,-7,2,295,3454,2496108,"64e50b4d46975887ae7ca174",2,-27,-12,6,3,0.0745762711864407
"5765dffd7805730001ecfcd0","br",24,-17,2,255,4532,2500641,"64e50b4d46975887ae7ca174",2,-12,18,6,4,0.0941176470588235
"5765dffd7805730001ecfcd0","br",29,15,2,239,3029,2503672,"64e50b4d46975887ae7ca174",2,-12,3,6,5,0.121338912133891
"5765dffd7805730001ecfcd0","br",35,18,2,251,2454,2506127,"64e50b4d46975887ae7ca174",2,13,6,6,6,0.139442231075697
"5765dffd7805730001ecfcd0","br",21,5,2,214,3494,2509622,"64e50b4d46975887ae7ca174",2,-4,19,6,7,0.0981308411214953
"5765dffd7805730001ecfcd0","br",26,23,2,250,2405,2512028,"64e50b4d46975887ae7ca174",2,21,-4,6,8,0.104
"5765dffd7805730001ecfcd0","br",23,-14,2,221,4909,2516938,"64e50b4d46975887ae7ca174",2,3,24,6,9,0.104072398190045
"5765dffd7805730001ecfcd0","br",24,16,2,280,3494,2520433,"64e50b4d46975887ae7ca174",2,-28,-17,6,10,0.0857142857142857
"5765dffd7805730001ecfcd0","br",20,-1,2,285,3756,2524191,"64e50b4d46975887ae7ca174",2,-25,12,6,11,0.0701754385964912
"5765dffd7805730001ecfcd0","br",22,-14,2,226,3542,2527734,"64e50b4d46975887ae7ca174",2,-7,23,6,12,0.0973451327433628
"5765dffd7805730001ecfcd0","br",28,1,2,232,3205,2530940,"64e50b4d46975887ae7ca174",2,14,19,6,13,0.120689655172414
"5765dffd7805730001ecfcd0","br",29,4,2,278,3428,2534370,"64e50b4d46975887ae7ca174",2,18,10,6,14,0.10431654676259
"5765dffd7805730001ecfcd0","br",20,-7,2,209,2918,2537289,"64e50b4d46975887ae7ca174",2,16,-5,6,15,0.0956937799043062
"5765dffd7805730001ecfcd0","pog",360,386,2,370,5196,2577973,"64e50b4d46975887ae7ca174",2,0,0,6,1,10
"5765dffd7805730001ecfcd0","pog",317,325,2,328,4661,2582635,"64e50b4d46975887ae7ca174",2,0,0,6,2,11
"5765dffd7805730001ecfcd0","pog",327,389,2,343,4941,2587577,"64e50b4d46975887ae7ca174",2,0,0,6,3,16
"5765dffd7805730001ecfcd0","pog",302,344,2,328,4381,2591959,"64e50b4d46975887ae7ca174",2,0,0,6,4,26
"5765dffd7805730001ecfcd0","pog",302,336,2,321,3421,2595381,"64e50b4d46975887ae7ca174",2,0,0,6,5,19
"5765dffd7805730001ecfcd0","pog",293,307,2,312,2662,2598044,"64e50b4d46975887ae7ca174",2,0,0,6,6,19
"5765dffd7805730001ecfcd0","pog",313,365,2,323,3349,2601395,"64e50b4d46975887ae7ca174",2,0,0,6,7,10
"5765dffd7805730001ecfcd0","pog",308,306,2,324,1797,2603193,"64e50b4d46975887ae7ca174",2,0,0,6,8,16
"5765dffd7805730001ecfcd0","pog",352,328,2,365,3389,2606584,"64e50b4d46975887ae7ca174",2,0,0,6,9,13
"5765dffd7805730001ecfcd0","pog",336,308,2,357,3717,2610302,"64e50b4d46975887ae7ca174",2,0,0,6,10,21
"5765dffd7805730001ecfcd0","pog",344,370,2,366,2374,2612677,"64e50b4d46975887ae7ca174",2,0,0,6,11,22
"5765dffd7805730001ecfcd0","pog",354,340,2,375,4453,2617131,"64e50b4d46975887ae7ca174",2,0,0,6,12,21
"5765dffd7805730001ecfcd0","pog",328,282,2,359,4724,2621857,"64e50b4d46975887ae7ca174",2,0,0,6,13,31
"5765dffd7805730001ecfcd0","pog",347,393,2,370,5548,2627406,"64e50b4d46975887ae7ca174",2,0,0,6,14,23
"5765dffd7805730001ecfcd0","pog",278,282,2,302,3774,2631181,"64e50b4d46975887ae7ca174",2,0,0,6,15,24
"5765dffd7805730001ecfcd0","zol",-0.57,-0.13,2,NA,4388,2653890,"64e50b4d46975887ae7ca174",2,-7,-21,6,1,0.57
"5765dffd7805730001ecfcd0","zol",-0.97,0.57,2,NA,3333,2657225,"64e50b4d46975887ae7ca174",2,-15,-7,6,2,0.97
"5765dffd7805730001ecfcd0","zol",-0.8,-0.3,2,NA,3428,2660655,"64e50b4d46975887ae7ca174",2,-5,18,6,3,0.8
"5765dffd7805730001ecfcd0","zol",-1.08,0.68,2,NA,2796,2663453,"64e50b4d46975887ae7ca174",2,2,9,6,4,1.08
"5765dffd7805730001ecfcd0","zol",-0.92,0.62,2,NA,2973,2666428,"64e50b4d46975887ae7ca174",2,8,-11,6,5,0.92
"5765dffd7805730001ecfcd0","zol",-0.85,0.35,2,NA,3925,2670355,"64e50b4d46975887ae7ca174",2,-6,-28,6,6,0.85
"5765dffd7805730001ecfcd0","zol",-0.75,0.15,2,NA,3356,2673713,"64e50b4d46975887ae7ca174",2,2,7,6,7,0.75
"5765dffd7805730001ecfcd0","zol",-0.71,-0.39,2,NA,6555,2680270,"64e50b4d46975887ae7ca174",2,21,-2,6,8,0.71
"5765dffd7805730001ecfcd0","zol",-1.08,0.38,2,NA,5795,2686067,"64e50b4d46975887ae7ca174",2,27,16,6,9,1.08
"5765dffd7805730001ecfcd0","zol",-1.03,0.23,2,NA,4093,2690162,"64e50b4d46975887ae7ca174",2,-10,9,6,10,1.03
"5765dffd7805730001ecfcd0","zol",-0.79,0.09,2,NA,3060,2693224,"64e50b4d46975887ae7ca174",2,11,8,6,11,0.79
"5765dffd7805730001ecfcd0","zol",-1.06,0.66,2,NA,5043,2698269,"64e50b4d46975887ae7ca174",2,-5,15,6,12,1.06
"5765dffd7805730001ecfcd0","zol",-1.02,0.32,2,NA,5724,2703995,"64e50b4d46975887ae7ca174",2,-15,20,6,13,1.02
"5765dffd7805730001ecfcd0","zol",-1.37,0.47,2,NA,4748,2708745,"64e50b4d46975887ae7ca174",2,2,-10,6,14,1.37
"5765dffd7805730001ecfcd0","zol",-1.34,0.74,2,NA,2949,2711695,"64e50b4d46975887ae7ca174",2,12,-27,6,15,1.34
"57becf0ef93a2e0001ce7ce4","eb",45,30,2,39,3934,102144,"64de7c1e7248d561a0bfd9d6",1,0,0,7,1,0.153846153846154
"57becf0ef93a2e0001ce7ce4","eb",40,48,2,35,4736,106881,"64de7c1e7248d561a0bfd9d6",1,0,0,7,2,0.142857142857143
"57becf0ef93a2e0001ce7ce4","eb",62,38,2,54,4838,111721,"64de7c1e7248d561a0bfd9d6",1,0,0,7,3,0.148148148148148
"57becf0ef93a2e0001ce7ce4","eb",30,49,2,30,2911,114634,"64de7c1e7248d561a0bfd9d6",1,0,0,7,4,0
"57becf0ef93a2e0001ce7ce4","eb",54,47,2,46,3710,118344,"64de7c1e7248d561a0bfd9d6",1,0,0,7,5,0.173913043478261
"57becf0ef93a2e0001ce7ce4","eb",53,42,2,41,5304,123650,"64de7c1e7248d561a0bfd9d6",1,0,0,7,6,0.292682926829268
"57becf0ef93a2e0001ce7ce4","eb",35,34,2,32,3471,127121,"64de7c1e7248d561a0bfd9d6",1,0,0,7,7,0.09375
"57becf0ef93a2e0001ce7ce4","eb",44,48,2,36,2823,129946,"64de7c1e7248d561a0bfd9d6",1,0,0,7,8,0.222222222222222
"57becf0ef93a2e0001ce7ce4","eb",49,53,2,42,3463,133410,"64de7c1e7248d561a0bfd9d6",1,0,0,7,9,0.166666666666667
"57becf0ef93a2e0001ce7ce4","eb",57,34,2,50,5750,139163,"64de7c1e7248d561a0bfd9d6",1,0,0,7,10,0.14
"57becf0ef93a2e0001ce7ce4","eb",62,37,2,51,4303,143467,"64de7c1e7248d561a0bfd9d6",1,0,0,7,11,0.215686274509804
"57becf0ef93a2e0001ce7ce4","eb",40,40,2,36,4661,148131,"64de7c1e7248d561a0bfd9d6",1,0,0,7,12,0.111111111111111
"57becf0ef93a2e0001ce7ce4","eb",52,26,2,43,5230,153363,"64de7c1e7248d561a0bfd9d6",1,0,0,7,13,0.209302325581395
"57becf0ef93a2e0001ce7ce4","eb",40,36,2,37,5031,158396,"64de7c1e7248d561a0bfd9d6",1,0,0,7,14,0.0810810810810811
"57becf0ef93a2e0001ce7ce4","eb",57,28,2,52,3255,161652,"64de7c1e7248d561a0bfd9d6",1,0,0,7,15,0.0961538461538462
"57becf0ef93a2e0001ce7ce4","br",14,-20,2,227,3823,179101,"64de7c1e7248d561a0bfd9d6",1,-2,2,7,1,0.0616740088105727
"57becf0ef93a2e0001ce7ce4","br",20,-27,2,288,3998,183101,"64de7c1e7248d561a0bfd9d6",1,28,25,7,2,0.0694444444444444
"57becf0ef93a2e0001ce7ce4","br",16,-25,2,259,3479,186581,"64de7c1e7248d561a0bfd9d6",1,-14,17,7,3,0.0617760617760618
"57becf0ef93a2e0001ce7ce4","br",22,22,2,236,2264,188846,"64de7c1e7248d561a0bfd9d6",1,29,-7,7,4,0.0932203389830508
"57becf0ef93a2e0001ce7ce4","br",19,-24,2,290,3495,192343,"64de7c1e7248d561a0bfd9d6",1,-13,5,7,5,0.0655172413793104
"57becf0ef93a2e0001ce7ce4","br",16,0,2,266,2405,194750,"64de7c1e7248d561a0bfd9d6",1,28,-19,7,6,0.0601503759398496
"57becf0ef93a2e0001ce7ce4","br",16,-15,2,239,3366,198120,"64de7c1e7248d561a0bfd9d6",1,14,8,7,7,0.0669456066945607
"57becf0ef93a2e0001ce7ce4","br",23,-27,2,294,4349,202470,"64de7c1e7248d561a0bfd9d6",1,-18,-12,7,8,0.0782312925170068
"57becf0ef93a2e0001ce7ce4","br",19,-18,2,252,3048,205520,"64de7c1e7248d561a0bfd9d6",1,-9,19,7,9,0.0753968253968254
"57becf0ef93a2e0001ce7ce4","br",20,10,2,245,2470,207991,"64de7c1e7248d561a0bfd9d6",1,-13,-5,7,10,0.0816326530612245
"57becf0ef93a2e0001ce7ce4","br",17,-15,2,211,3111,211104,"64de7c1e7248d561a0bfd9d6",1,-30,16,7,11,0.0805687203791469
